pos,corr_resp,trials.thisRepN,trials.thisTrialN,trials.thisN,trials.thisIndex,trials_2.thisRepN,trials_2.thisTrialN,trials_2.thisN,trials_2.thisIndex,thisRow.t,notes,trial.started,fixation.started,line1.started,line2.started,line3.started,line4.started,fixation.stopped,probe.started,key_resp.started,trial.stopped,key_resp.keys,key_resp.corr,key_resp.rt,key_resp.duration,participant,session,date,expName,psychopyVersion,frameRate,expStart,
-50,x,0,0,0,0,,,,,0.12163069999951404,,0.0561844000039855,0.12163069999951404,1.0028771000070265,1.0028771000070265,1.0028771000070265,1.0028771000070265,1.134282600003644,2.000796399996034,2.000796399996034,11.67123380000703,x,1,9.652147400003741,None,398324,001,2024-10-17_18h14.06.959,motor_sequence_learning_exp,2024.1.5,None,2024-10-17 18h14.14.971627 +0530,
150,v,0,1,1,1,,,,,11.685803700005636,,11.673684800000046,11.685803700005636,12.687014299997827,12.687014299997827,12.687014299997827,12.687014299997827,12.687014299997827,13.687287499997183,13.687287499997183,15.175385700000334,v,1,1.472882700007176,None,398324,001,2024-10-17_18h14.06.959,motor_sequence_learning_exp,2024.1.5,None,2024-10-17 18h14.14.971627 +0530,
50,c,0,2,2,2,,,,,15.188049500007764,,15.176480099995388,15.188049500007764,16.187768500007223,16.187768500007223,16.187768500007223,16.187768500007223,16.187768500007223,17.18739479999931,17.18739479999931,18.46006579999812,c,1,1.2603107999893837,None,398324,001,2024-10-17_18h14.06.959,motor_sequence_learning_exp,2024.1.5,None,2024-10-17 18h14.14.971627 +0530,
-150,z,0,3,3,3,,,,,18.471186900002067,,18.46124879999843,18.471186900002067,19.47126040000876,19.47126040000876,19.47126040000876,19.47126040000876,19.47126040000876,20.471465299997362,20.471465299997362,21.41294840000046,z,1,0.9371186000062153,None,398324,001,2024-10-17_18h14.06.959,motor_sequence_learning_exp,2024.1.5,None,2024-10-17 18h14.14.971627 +0530,
-50,x,1,0,4,0,,,,,21.42163480000454,,21.414303600002313,21.42163480000454,22.422377399998368,22.422377399998368,22.422377399998368,22.422377399998368,22.422377399998368,23.422081299999263,23.422081299999263,24.299215399994864,x,1,0.8565797999908682,None,398324,001,2024-10-17_18h14.06.959,motor_sequence_learning_exp,2024.1.5,None,2024-10-17 18h14.14.971627 +0530,
150,v,1,1,5,1,,,,,24.323661100002937,,24.30147869999928,24.323661100002937,25.3059299000015,25.3059299000015,25.3059299000015,25.3059299000015,25.339869999996154,26.305982200006838,26.305982200006838,27.377664800005732,v,1,1.0645807000109926,None,398324,001,2024-10-17_18h14.06.959,motor_sequence_learning_exp,2024.1.5,None,2024-10-17 18h14.14.971627 +0530,
50,c,1,2,6,2,,,,,27.389794600007008,,27.378853300004266,27.389794600007008,28.405309000008856,28.405309000008856,28.405309000008856,28.405309000008856,28.405309000008856,29.389849800005322,29.389849800005322,30.31299730000319,c,1,0.9134600999968825,None,398324,001,2024-10-17_18h14.06.959,motor_sequence_learning_exp,2024.1.5,None,2024-10-17 18h14.14.971627 +0530,
-150,z,1,3,7,3,,,,,30.323440000007395,,30.314162800001213,30.323440000007395,31.324134800001048,31.324134800001048,31.324134800001048,31.324134800001048,31.324134800001048,32.323982700007036,32.323982700007036,33.130705500007025,z,1,0.7977918999968097,None,398324,001,2024-10-17_18h14.06.959,motor_sequence_learning_exp,2024.1.5,None,2024-10-17 18h14.14.971627 +0530,
-50,x,2,0,8,0,,,,,33.14025389999733,,33.131995200004894,33.14025389999733,34.141002799995476,34.141002799995476,34.141002799995476,34.141002799995476,34.141002799995476,35.144038700003875,35.144038700003875,35.880686200005584,x,1,0.723561199993128,None,398324,001,2024-10-17_18h14.06.959,motor_sequence_learning_exp,2024.1.5,None,2024-10-17 18h14.14.971627 +0530,
150,v,2,1,9,1,,,,,35.89188599999761,,35.882149400000344,35.89188599999761,36.89110019999498,36.89110019999498,36.89110019999498,36.89110019999498,36.89110019999498,37.89109240000835,37.89109240000835,39.09673730000213,v,1,1.2030177999986336,None,398324,001,2024-10-17_18h14.06.959,motor_sequence_learning_exp,2024.1.5,None,2024-10-17 18h14.14.971627 +0530,
50,c,2,2,10,2,,,,,39.108312500000466,,39.09838540000783,39.108312500000466,40.10881890000019,40.10881890000019,40.10881890000019,40.10881890000019,40.10881890000019,41.108890600007726,41.108890600007726,42.39625150000211,c,1,1.2791478000144707,None,398324,001,2024-10-17_18h14.06.959,motor_sequence_learning_exp,2024.1.5,None,2024-10-17 18h14.14.971627 +0530,
-150,z,2,3,11,3,,,,,42.40918950000196,,42.39730470000359,42.40918950000196,43.409055900003295,43.409055900003295,43.409055900003295,43.409055900003295,43.409055900003295,44.409499900008086,44.409499900008086,45.198911400002544,z,1,0.772304099999019,None,398324,001,2024-10-17_18h14.06.959,motor_sequence_learning_exp,2024.1.5,None,2024-10-17 18h14.14.971627 +0530,
-50,x,3,0,12,0,,,,,45.20991220000724,,45.20010960000218,45.20991220000724,46.21108770000865,46.21108770000865,46.21108770000865,46.21108770000865,46.21108770000865,47.20960529999866,47.20960529999866,48.03232019999996,x,1,0.8142389999993611,None,398324,001,2024-10-17_18h14.06.959,motor_sequence_learning_exp,2024.1.5,None,2024-10-17 18h14.14.971627 +0530,
150,v,3,1,13,1,,,,,48.04398840000795,,48.03347389999544,48.04398840000795,49.043785200003185,49.043785200003185,49.043785200003185,49.043785200003185,49.043785200003185,50.04351430000679,50.04351430000679,51.132480100000976,v,1,1.0777681000035955,None,398324,001,2024-10-17_18h14.06.959,motor_sequence_learning_exp,2024.1.5,None,2024-10-17 18h14.14.971627 +0530,
50,c,3,2,14,2,,,,,51.143837199997506,,51.13362999999663,51.143837199997506,52.14380770000571,52.14380770000571,52.14380770000571,52.14380770000571,52.14380770000571,53.1441072000016,53.1441072000016,54.018082499998854,c,1,0.8581084000034025,None,398324,001,2024-10-17_18h14.06.959,motor_sequence_learning_exp,2024.1.5,None,2024-10-17 18h14.14.971627 +0530,
-150,z,3,3,15,3,,,,,54.02857930000755,,54.020091300000786,54.02857930000755,55.02799760000198,55.02799760000198,55.02799760000198,55.02799760000198,55.02799760000198,56.027920000007725,56.027920000007725,56.85031650000019,z,1,0.81556869999622,None,398324,001,2024-10-17_18h14.06.959,motor_sequence_learning_exp,2024.1.5,None,2024-10-17 18h14.14.971627 +0530,
-50,x,4,0,16,0,,,,,56.861607200000435,,56.85137620000751,56.861607200000435,57.86218290000397,57.86218290000397,57.86218290000397,57.86218290000397,57.86218290000397,58.861553199996706,58.861553199996706,59.61833290000504,x,1,0.7532506999996258,None,398324,001,2024-10-17_18h14.06.959,motor_sequence_learning_exp,2024.1.5,None,2024-10-17 18h14.14.971627 +0530,
150,v,4,1,17,1,,,,,59.62989359999483,,59.6201296000072,59.62989359999483,60.62917100000777,60.62917100000777,60.62917100000777,60.62917100000777,60.62917100000777,61.62891810000292,61.62891810000292,62.651096600005985,v,1,1.0088518999982625,None,398324,001,2024-10-17_18h14.06.959,motor_sequence_learning_exp,2024.1.5,None,2024-10-17 18h14.14.971627 +0530,
50,c,4,2,18,2,,,,,62.662438100000145,,62.65235050000774,62.662438100000145,63.66261179999856,63.66261179999856,63.66261179999856,63.66261179999856,63.66261179999856,64.66301960000419,64.66301960000419,65.61820660000376,c,1,0.9402771000022767,None,398324,001,2024-10-17_18h14.06.959,motor_sequence_learning_exp,2024.1.5,None,2024-10-17 18h14.14.971627 +0530,
-150,z,4,3,19,3,,,,,65.6298431000032,,65.61946689999604,65.6298431000032,66.63015549999545,66.63015549999545,66.63015549999545,66.63015549999545,66.63015549999545,67.63013050000882,67.63013050000882,68.23540079999657,z,1,0.588008799997624,None,398324,001,2024-10-17_18h14.06.959,motor_sequence_learning_exp,2024.1.5,None,2024-10-17 18h14.14.971627 +0530,
-50,x,5,0,20,0,,,,,68.2469420999987,,68.23653760000889,68.2469420999987,69.24707620000117,69.24707620000117,69.24707620000117,69.24707620000117,69.24707620000117,70.24724589999823,70.24724589999823,70.92042819999915,x,1,0.6673383000015747,None,398324,001,2024-10-17_18h14.06.959,motor_sequence_learning_exp,2024.1.5,None,2024-10-17 18h14.14.971627 +0530,
150,v,5,1,21,1,,,,,70.93064010000671,,70.92168889999448,70.93064010000671,71.93153950000124,71.93153950000124,71.93153950000124,71.93153950000124,71.93153950000124,72.93113900000753,72.93113900000753,74.05664769999566,v,1,1.1151832999894395,None,398324,001,2024-10-17_18h14.06.959,motor_sequence_learning_exp,2024.1.5,None,2024-10-17 18h14.14.971627 +0530,
50,c,5,2,22,2,,,,,74.08101180000813,,74.05861130000267,74.08101180000813,75.06452620000346,75.06452620000346,75.06452620000346,75.06452620000346,75.08258689999639,76.06478309999511,76.06478309999511,76.9537696000043,c,1,0.8770798000041395,None,398324,001,2024-10-17_18h14.06.959,motor_sequence_learning_exp,2024.1.5,None,2024-10-17 18h14.14.971627 +0530,
-150,z,5,3,23,3,,,,,76.96515930000169,,76.95502619999752,76.96515930000169,77.96534999999858,77.96534999999858,77.96534999999858,77.96534999999858,77.96534999999858,78.96545400000468,78.96545400000468,79.65365049999673,z,1,0.6716826000047149,None,398324,001,2024-10-17_18h14.06.959,motor_sequence_learning_exp,2024.1.5,None,2024-10-17 18h14.14.971627 +0530,
-50,x,6,0,24,0,,,,,79.66642460000003,,79.65483060000406,79.66642460000003,80.66549010000017,80.66549010000017,80.66549010000017,80.66549010000017,80.66549010000017,81.66644220000308,81.66644220000308,82.25521070000832,x,1,0.5871163999981945,None,398324,001,2024-10-17_18h14.06.959,motor_sequence_learning_exp,2024.1.5,None,2024-10-17 18h14.14.971627 +0530,
150,v,6,1,25,1,,,,,82.26707850000821,,82.25639880000381,82.26707850000821,83.26628569999593,83.26628569999593,83.26628569999593,83.26628569999593,83.26628569999593,84.26718999999866,84.26718999999866,85.45509730000049,v,1,1.1745523999998113,None,398324,001,2024-10-17_18h14.06.959,motor_sequence_learning_exp,2024.1.5,None,2024-10-17 18h14.14.971627 +0530,
50,c,6,2,26,2,,,,,85.46679720000247,,85.4562442000024,85.46679720000247,86.46722439999576,86.46722439999576,86.46722439999576,86.46722439999576,86.46722439999576,87.4670225000009,87.4670225000009,88.32277529999556,c,1,0.8392366000043694,None,398324,001,2024-10-17_18h14.06.959,motor_sequence_learning_exp,2024.1.5,None,2024-10-17 18h14.14.971627 +0530,
-150,z,6,3,27,3,,,,,88.3341431000008,,88.32395859999815,88.3341431000008,89.33413200000359,89.33413200000359,89.33413200000359,89.33413200000359,89.33413200000359,90.33412379999936,90.33412379999936,91.12453489999461,z,1,0.7749066999967908,None,398324,001,2024-10-17_18h14.06.959,motor_sequence_learning_exp,2024.1.5,None,2024-10-17 18h14.14.971627 +0530,
-50,x,7,0,28,0,,,,,91.13445440000214,,91.12660580000374,91.13445440000214,92.13449430000037,92.13449430000037,92.13449430000037,92.13449430000037,92.13449430000037,93.13451960000384,93.13451960000384,93.92957710000337,x,1,0.7876269999978831,None,398324,001,2024-10-17_18h14.06.959,motor_sequence_learning_exp,2024.1.5,None,2024-10-17 18h14.14.971627 +0530,
150,v,7,1,29,1,,,,,93.95111890000408,,93.93061039999884,93.95111890000408,94.93519839999499,94.93519839999499,94.93519839999499,94.93519839999499,94.9678944000043,95.93590630000108,95.93590630000108,96.79015100000834,v,1,0.8451867999974638,None,398324,001,2024-10-17_18h14.06.959,motor_sequence_learning_exp,2024.1.5,None,2024-10-17 18h14.14.971627 +0530,
50,c,7,2,30,2,,,,,96.80215269999462,,96.79130739999528,96.80215269999462,97.80229809999582,97.80229809999582,97.80229809999582,97.80229809999582,97.80229809999582,98.80248320000828,98.80248320000828,99.62390639999649,c,1,0.8107525999948848,None,398324,001,2024-10-17_18h14.06.959,motor_sequence_learning_exp,2024.1.5,None,2024-10-17 18h14.14.971627 +0530,
-150,z,7,3,31,3,,,,,99.63625690000481,,99.6251137000072,99.63625690000481,100.6366096999991,100.6366096999991,100.6366096999991,100.6366096999991,100.6366096999991,101.63612439999997,101.63612439999997,102.40844379999908,z,1,0.7613819999969564,None,398324,001,2024-10-17_18h14.06.959,motor_sequence_learning_exp,2024.1.5,None,2024-10-17 18h14.14.971627 +0530,
-50,x,8,0,32,0,,,,,102.42012480000267,,102.41040720000456,102.42012480000267,103.42003839999961,103.42003839999961,103.42003839999961,103.42003839999961,103.42003839999961,104.42004409999936,104.42004409999936,105.17612889999873,x,1,0.7480792999995174,None,398324,001,2024-10-17_18h14.06.959,motor_sequence_learning_exp,2024.1.5,None,2024-10-17 18h14.14.971627 +0530,
150,v,8,1,33,1,,,,,105.18780319999496,,105.17735399999947,105.18780319999496,106.18777040000714,106.18777040000714,106.18777040000714,106.18777040000714,106.18777040000714,107.18706860000384,107.18706860000384,108.12586230000306,v,1,0.9252780999959214,None,398324,001,2024-10-17_18h14.06.959,motor_sequence_learning_exp,2024.1.5,None,2024-10-17 18h14.14.971627 +0530,
50,c,8,2,34,2,,,,,108.13735299999826,,108.12703519999923,108.13735299999826,109.1377499000082,109.1377499000082,109.1377499000082,109.1377499000082,109.1377499000082,110.13816580000275,110.13816580000275,110.94300549999753,c,1,0.7907829999894602,None,398324,001,2024-10-17_18h14.06.959,motor_sequence_learning_exp,2024.1.5,None,2024-10-17 18h14.14.971627 +0530,
-150,z,8,3,35,3,,,,,110.95526709999831,,110.94420959999843,110.95526709999831,111.95485940000799,111.95485940000799,111.95485940000799,111.95485940000799,111.95485940000799,112.95498120000411,112.95498120000411,113.89455019999878,z,1,0.9337349999987055,None,398324,001,2024-10-17_18h14.06.959,motor_sequence_learning_exp,2024.1.5,None,2024-10-17 18h14.14.971627 +0530,
-50,x,9,0,36,0,,,,,113.90551359999517,,113.89564000000246,113.90551359999517,114.92116330000863,114.92116330000863,114.92116330000863,114.92116330000863,114.92116330000863,115.90519869999844,115.90519869999844,116.70999750000192,x,1,0.7894880000094417,None,398324,001,2024-10-17_18h14.06.959,motor_sequence_learning_exp,2024.1.5,None,2024-10-17 18h14.14.971627 +0530,
150,v,9,1,37,1,,,,,116.72284539999964,,116.7111248000001,116.72284539999964,117.72242489999917,117.72242489999917,117.72242489999917,117.72242489999917,117.72242489999917,118.72242459999688,118.72242459999688,119.79583679999632,v,1,1.0693539999920176,None,398324,001,2024-10-17_18h14.06.959,motor_sequence_learning_exp,2024.1.5,None,2024-10-17 18h14.14.971627 +0530,
50,c,9,2,38,2,,,,,119.80602129999897,,119.7970689000067,119.80602129999897,120.8064660999953,120.8064660999953,120.8064660999953,120.8064660999953,120.8064660999953,121.80722349999996,121.80722349999996,122.4292459999997,c,1,0.6139392000040971,None,398324,001,2024-10-17_18h14.06.959,motor_sequence_learning_exp,2024.1.5,None,2024-10-17 18h14.14.971627 +0530,
-150,z,9,3,39,3,,,,,122.44106700000702,,122.43053710000822,122.44106700000702,123.4406358999986,123.4406358999986,123.4406358999986,123.4406358999986,123.4406358999986,124.44317440000304,124.44317440000304,125.496650400004,z,1,1.0513890000001993,None,398324,001,2024-10-17_18h14.06.959,motor_sequence_learning_exp,2024.1.5,None,2024-10-17 18h14.14.971627 +0530,
-50,x,10,0,40,0,,,,,125.50735390000045,,125.4978284999961,125.50735390000045,126.50779679999687,126.50779679999687,126.50779679999687,126.50779679999687,126.50779679999687,127.50749570000335,127.50749570000335,128.24632160000328,x,1,0.7278432000020985,None,398324,001,2024-10-17_18h14.06.959,motor_sequence_learning_exp,2024.1.5,None,2024-10-17 18h14.14.971627 +0530,
150,v,10,1,41,1,,,,,128.2578238999995,,128.24754810000013,128.2578238999995,129.2582007000019,129.2582007000019,129.2582007000019,129.2582007000019,129.2582007000019,130.25778260000516,130.25778260000516,131.2464362000028,v,1,0.9832388000068022,None,398324,001,2024-10-17_18h14.06.959,motor_sequence_learning_exp,2024.1.5,None,2024-10-17 18h14.14.971627 +0530,
50,c,10,2,42,2,,,,,131.25854389999586,,131.24753770000825,131.25854389999586,132.25885070000368,132.25885070000368,132.25885070000368,132.25885070000368,132.25885070000368,133.25846569999703,133.25846569999703,133.99734790000366,c,1,0.7259213000070304,None,398324,001,2024-10-17_18h14.06.959,motor_sequence_learning_exp,2024.1.5,None,2024-10-17 18h14.14.971627 +0530,
-150,z,10,3,43,3,,,,,134.00902430000133,,133.99857730000804,134.00902430000133,135.00917689999915,135.00917689999915,135.00917689999915,135.00917689999915,135.00917689999915,136.00944760000857,136.00944760000857,137.08200639999995,z,1,1.0641498000040883,None,398324,001,2024-10-17_18h14.06.959,motor_sequence_learning_exp,2024.1.5,None,2024-10-17 18h14.14.971627 +0530,
-50,x,11,0,44,0,,,,,137.09263070000452,,137.08330100000603,137.09263070000452,138.09316590000526,138.09316590000526,138.09316590000526,138.09316590000526,138.09316590000526,139.09328889999597,139.09328889999597,139.84835230000317,x,1,0.7472680000064429,None,398324,001,2024-10-17_18h14.06.959,motor_sequence_learning_exp,2024.1.5,None,2024-10-17 18h14.14.971627 +0530,
150,v,11,1,45,1,,,,,139.85992040000565,,139.84943159999966,139.85992040000565,140.86033160000807,140.86033160000807,140.86033160000807,140.86033160000807,140.86033160000807,141.86040269999648,141.86040269999648,142.84942600000068,v,1,0.9837539000000106,None,398324,001,2024-10-17_18h14.06.959,motor_sequence_learning_exp,2024.1.5,None,2024-10-17 18h14.14.971627 +0530,
50,c,11,2,46,2,,,,,142.86070659999677,,142.85054189999937,142.86070659999677,143.86083710000094,143.86083710000094,143.86083710000094,143.86083710000094,143.86083710000094,144.86122600000817,144.86122600000817,145.64985850000812,c,1,0.7860585000016727,None,398324,001,2024-10-17_18h14.06.959,motor_sequence_learning_exp,2024.1.5,None,2024-10-17 18h14.14.971627 +0530,
-150,z,11,3,47,3,,,,,145.660781700004,,145.6509589000052,145.660781700004,146.66156870000123,146.66156870000123,146.66156870000123,146.66156870000123,146.66156870000123,147.66109320000396,147.66109320000396,148.55048449999595,z,1,0.8878108000062639,None,398324,001,2024-10-17_18h14.06.959,motor_sequence_learning_exp,2024.1.5,None,2024-10-17 18h14.14.971627 +0530,
-50,x,12,0,48,0,,,,,148.56135400000494,,148.55162670000573,148.56135400000494,149.5619480000023,149.5619480000023,149.5619480000023,149.5619480000023,149.5619480000023,150.5617670000065,150.5617670000065,151.21635050000623,x,1,0.6380180999985896,None,398324,001,2024-10-17_18h14.06.959,motor_sequence_learning_exp,2024.1.5,None,2024-10-17 18h14.14.971627 +0530,
150,v,12,1,49,1,,,,,151.22929940000176,,151.21749029999773,151.22929940000176,152.22902149999572,152.22902149999572,152.22902149999572,152.22902149999572,152.22902149999572,153.22882410000602,153.22882410000602,154.2176002000051,v,1,0.9737095000018599,None,398324,001,2024-10-17_18h14.06.959,motor_sequence_learning_exp,2024.1.5,None,2024-10-17 18h14.14.971627 +0530,
50,c,12,2,50,2,,,,,154.22927470000286,,154.21878360000846,154.22927470000286,155.22962300000654,155.22962300000654,155.22962300000654,155.22962300000654,155.22962300000654,156.229416999995,156.229416999995,156.96999690000666,c,1,0.735145200000261,None,398324,001,2024-10-17_18h14.06.959,motor_sequence_learning_exp,2024.1.5,None,2024-10-17 18h14.14.971627 +0530,
-150,z,12,3,51,3,,,,,156.97957530000713,,156.97122999999556,156.97957530000713,157.97984420000284,157.97984420000284,157.97984420000284,157.97984420000284,157.97984420000284,158.98009040000034,158.98009040000034,160.16931470000418,z,1,1.1817258999944897,None,398324,001,2024-10-17_18h14.06.959,motor_sequence_learning_exp,2024.1.5,None,2024-10-17 18h14.14.971627 +0530,
-50,x,13,0,52,0,,,,,160.18037149999873,,160.1705682000029,160.18037149999873,161.18054739999934,161.18054739999934,161.18054739999934,161.18054739999934,161.18054739999934,162.18070460000308,162.18070460000308,162.92067659999884,x,1,0.7267960000026505,None,398324,001,2024-10-17_18h14.06.959,motor_sequence_learning_exp,2024.1.5,None,2024-10-17 18h14.14.971627 +0530,
150,v,13,1,53,1,,,,,162.9305599000072,,162.9218494000088,162.9305599000072,163.9307012000063,163.9307012000063,163.9307012000063,163.9307012000063,163.9307012000063,164.93111900000076,164.93111900000076,166.0041132000042,v,1,1.0682448999868939,None,398324,001,2024-10-17_18h14.06.959,motor_sequence_learning_exp,2024.1.5,None,2024-10-17 18h14.14.971627 +0530,
50,c,13,2,54,2,,,,,166.01451140000427,,166.0053465999954,166.01451140000427,167.01493889999983,167.01493889999983,167.01493889999983,167.01493889999983,167.01493889999983,168.0148060000065,168.0148060000065,168.87064680000185,c,1,0.8394758000067668,None,398324,001,2024-10-17_18h14.06.959,motor_sequence_learning_exp,2024.1.5,None,2024-10-17 18h14.14.971627 +0530,
-150,z,13,3,55,3,,,,,168.88178169999446,,168.87185480000335,168.88178169999446,169.88280819999636,169.88280819999636,169.88280819999636,169.88280819999636,169.88280819999636,170.8820168999955,170.8820168999955,171.7702988999954,z,1,0.874043999996502,None,398324,001,2024-10-17_18h14.06.959,motor_sequence_learning_exp,2024.1.5,None,2024-10-17 18h14.14.971627 +0530,
-50,x,14,0,56,0,,,,,171.78358170000138,,171.77144209999824,171.78358170000138,172.7825143000082,172.7825143000082,172.7825143000082,172.7825143000082,172.7825143000082,173.78283589999774,173.78283589999774,174.65503170000738,x,1,0.8643554000009317,None,398324,001,2024-10-17_18h14.06.959,motor_sequence_learning_exp,2024.1.5,None,2024-10-17 18h14.14.971627 +0530,
150,v,14,1,57,1,,,,,174.6664837999997,,174.6561864999967,174.6664837999997,175.66648270000587,175.66648270000587,175.66648270000587,175.66648270000587,175.66648270000587,176.66642769999453,176.66642769999453,177.80551930000365,v,1,1.1268855999951484,None,398324,001,2024-10-17_18h14.06.959,motor_sequence_learning_exp,2024.1.5,None,2024-10-17 18h14.14.971627 +0530,
50,c,14,2,58,2,,,,,177.81701300000714,,177.80679250000685,177.81701300000714,178.8170042999991,178.8170042999991,178.8170042999991,178.8170042999991,178.8170042999991,179.81696130000637,179.81696130000637,180.67331159999594,c,1,0.8518156000063755,None,398324,001,2024-10-17_18h14.06.959,motor_sequence_learning_exp,2024.1.5,None,2024-10-17 18h14.14.971627 +0530,
-150,z,14,3,59,3,,,,,180.68436759999895,,180.6743518000003,180.68436759999895,181.68423339999572,181.68423339999572,181.68423339999572,181.68423339999572,181.68423339999572,182.68431120000605,182.68431120000605,183.50590190000366,z,1,0.8084068000025582,None,398324,001,2024-10-17_18h14.06.959,motor_sequence_learning_exp,2024.1.5,None,2024-10-17 18h14.14.971627 +0530,
-50,x,15,0,60,0,,,,,183.51816880000115,,183.50707279999915,183.51816880000115,184.5181028000079,184.5181028000079,184.5181028000079,184.5181028000079,184.5181028000079,185.5180570000084,185.5180570000084,186.17272180000145,x,1,0.6404404000059003,None,398324,001,2024-10-17_18h14.06.959,motor_sequence_learning_exp,2024.1.5,None,2024-10-17 18h14.14.971627 +0530,
150,v,15,1,61,1,,,,,186.18597350000346,,186.17383880000853,186.18597350000346,187.18543529999442,187.18543529999442,187.18543529999442,187.18543529999442,187.18543529999442,188.18559829999867,188.18559829999867,189.3244934999966,v,1,1.1305283000110649,None,398324,001,2024-10-17_18h14.06.959,motor_sequence_learning_exp,2024.1.5,None,2024-10-17 18h14.14.971627 +0530,
50,c,15,2,62,2,,,,,189.33554100000765,,189.3257808000053,189.33554100000765,190.33624400000554,190.33624400000554,190.33624400000554,190.33624400000554,190.33624400000554,191.35156270000152,191.35156270000152,192.12410549999913,c,1,0.7597037999948952,None,398324,001,2024-10-17_18h14.06.959,motor_sequence_learning_exp,2024.1.5,None,2024-10-17 18h14.14.971627 +0530,
-150,z,15,3,63,3,,,,,192.13634420000017,,192.12520350000705,192.13634420000017,193.13620510000328,193.13620510000328,193.13620510000328,193.13620510000328,193.13620510000328,194.13616449999972,194.13616449999972,194.85895829999936,z,1,0.7094337000016822,None,398324,001,2024-10-17_18h14.06.959,motor_sequence_learning_exp,2024.1.5,None,2024-10-17 18h14.14.971627 +0530,
-50,x,16,0,64,0,,,,,194.8697428000014,,194.8601892000006,194.8697428000014,195.87018810000154,195.87018810000154,195.87018810000154,195.87018810000154,195.87018810000154,196.8704521000036,196.8704521000036,197.64449900000182,x,1,0.7723327000130666,None,398324,001,2024-10-17_18h14.06.959,motor_sequence_learning_exp,2024.1.5,None,2024-10-17 18h14.14.971627 +0530,
150,v,16,1,65,1,,,,,197.65381139999954,,197.64577800000552,197.65381139999954,198.6540406999993,198.6540406999993,198.6540406999993,198.6540406999993,198.6540406999993,199.65417039999738,199.65417039999738,200.56248619999678,v,1,0.8907386000064434,None,398324,001,2024-10-17_18h14.06.959,motor_sequence_learning_exp,2024.1.5,None,2024-10-17 18h14.14.971627 +0530,
50,c,16,2,66,2,,,,,200.58718060000683,,200.56475150000188,200.58718060000683,201.57113929999468,201.57113929999468,201.57113929999468,201.57113929999468,201.58894980000332,202.57132560000173,202.57132560000173,203.42595400000573,c,1,0.8420990999875357,None,398324,001,2024-10-17_18h14.06.959,motor_sequence_learning_exp,2024.1.5,None,2024-10-17 18h14.14.971627 +0530,
-150,z,16,3,67,3,,,,,203.43793060000462,,203.42737780000607,203.43793060000462,204.43892380000034,204.43892380000034,204.43892380000034,204.43892380000034,204.43892380000034,205.43874369999685,205.43874369999685,205.9104903999978,z,1,0.45777919999090955,None,398324,001,2024-10-17_18h14.06.959,motor_sequence_learning_exp,2024.1.5,None,2024-10-17 18h14.14.971627 +0530,
-50,x,17,0,68,0,,,,,205.9218097999983,,205.9117899999983,205.9218097999983,206.921883300005,206.921883300005,206.921883300005,206.921883300005,206.921883300005,207.92202660000476,207.92202660000476,208.57693440000003,x,1,0.6495544999925187,None,398324,001,2024-10-17_18h14.06.959,motor_sequence_learning_exp,2024.1.5,None,2024-10-17 18h14.14.971627 +0530,
150,v,17,1,69,1,,,,,208.58937430000515,,208.5780178999994,208.58937430000515,209.5894649999973,209.5894649999973,209.5894649999973,209.5894649999973,209.5894649999973,210.58963309999672,210.58963309999672,211.93255549999594,v,1,1.3301731999963522,None,398324,001,2024-10-17_18h14.06.959,motor_sequence_learning_exp,2024.1.5,None,2024-10-17 18h14.14.971627 +0530,
50,c,17,2,70,2,,,,,211.95527200000652,,211.93367850000504,211.95527200000652,212.94000400000368,212.94000400000368,212.94000400000368,212.94000400000368,212.95723569999973,213.95568090000597,213.95568090000597,214.84516070000245,c,1,0.8750232000020333,None,398324,001,2024-10-17_18h14.06.959,motor_sequence_learning_exp,2024.1.5,None,2024-10-17 18h14.14.971627 +0530,
-150,z,17,3,71,3,,,,,214.85691420000512,,214.84628739999607,214.85691420000512,215.8570241999987,215.8570241999987,215.8570241999987,215.8570241999987,215.8570241999987,216.85741720000806,216.85741720000806,217.39593899999454,z,1,0.5277548000012757,None,398324,001,2024-10-17_18h14.06.959,motor_sequence_learning_exp,2024.1.5,None,2024-10-17 18h14.14.971627 +0530,
-50,x,18,0,72,0,,,,,217.40736710000783,,217.39710450000712,217.40736710000783,218.4075417999993,218.4075417999993,218.4075417999993,218.4075417999993,218.4075417999993,219.4073686000047,219.4073686000047,219.9962274999998,x,1,0.581785200003651,None,398324,001,2024-10-17_18h14.06.959,motor_sequence_learning_exp,2024.1.5,None,2024-10-17 18h14.14.971627 +0530,
150,v,18,1,73,1,,,,,220.00824320000538,,219.9974144000007,220.00824320000538,221.00823039999523,221.00823039999523,221.00823039999523,221.00823039999523,221.00823039999523,222.0079442999995,222.0079442999995,222.84658359999594,v,1,0.8217602000077022,None,398324,001,2024-10-17_18h14.06.959,motor_sequence_learning_exp,2024.1.5,None,2024-10-17 18h14.14.971627 +0530,
50,c,18,2,74,2,,,,,222.8584833000059,,222.84775600000285,222.8584833000059,223.85860079999838,223.85860079999838,223.85860079999838,223.85860079999838,223.85860079999838,224.85889699999825,224.85889699999825,225.64732119999826,c,1,0.7713583000004292,None,398324,001,2024-10-17_18h14.06.959,motor_sequence_learning_exp,2024.1.5,None,2024-10-17 18h14.14.971627 +0530,
-150,z,18,3,75,3,,,,,225.6592634999979,,225.6486475999991,225.6592634999979,226.6590525000065,226.6590525000065,226.6590525000065,226.6590525000065,226.6590525000065,227.65920890000416,227.65920890000416,228.23327620000055,z,1,0.5676037000084762,None,398324,001,2024-10-17_18h14.06.959,motor_sequence_learning_exp,2024.1.5,None,2024-10-17 18h14.14.971627 +0530,
-50,x,19,0,76,0,,,,,228.2585165000055,,228.23766220000107,228.2585165000055,229.24396989999514,229.24396989999514,229.24396989999514,229.24396989999514,229.2757050000073,230.24267300000065,230.24267300000065,230.9147268000088,x,1,0.664760200001183,None,398324,001,2024-10-17_18h14.06.959,motor_sequence_learning_exp,2024.1.5,None,2024-10-17 18h14.14.971627 +0530,
150,v,19,1,77,1,,,,,230.92670739999448,,230.91602299999795,230.92670739999448,231.9264780999947,231.9264780999947,231.9264780999947,231.9264780999947,231.9264780999947,232.9267048000038,232.9267048000038,233.88255900000513,v,1,0.949089499990805,None,398324,001,2024-10-17_18h14.06.959,motor_sequence_learning_exp,2024.1.5,None,2024-10-17 18h14.14.971627 +0530,
50,c,19,2,78,2,,,,,233.89374040000257,,233.88374610000756,233.89374040000257,234.8937098000024,234.8937098000024,234.8937098000024,234.8937098000024,234.8937098000024,235.89367649999622,235.89367649999622,236.7333207000047,c,1,0.8366846999997506,None,398324,001,2024-10-17_18h14.06.959,motor_sequence_learning_exp,2024.1.5,None,2024-10-17 18h14.14.971627 +0530,
-150,z,19,3,79,3,,,,,236.74407939999946,,236.734394900006,236.74407939999946,237.7447014000063,237.7447014000063,237.7447014000063,237.7447014000063,237.7447014000063,238.7441717000038,238.7441717000038,239.35015510000812,z,1,0.5989016000094125,None,398324,001,2024-10-17_18h14.06.959,motor_sequence_learning_exp,2024.1.5,None,2024-10-17 18h14.14.971627 +0530,
-50,x,20,0,80,0,,,,,239.3615923000034,,239.351293300002,239.3615923000034,240.36148619999585,240.36148619999585,240.36148619999585,240.36148619999585,240.36148619999585,241.36165900000196,241.36165900000196,242.0675615000073,x,1,0.6963453999924241,None,398324,001,2024-10-17_18h14.06.959,motor_sequence_learning_exp,2024.1.5,None,2024-10-17 18h14.14.971627 +0530,
150,v,20,1,81,1,,,,,242.0786278000014,,242.06876609999745,242.0786278000014,243.07856500000344,243.07856500000344,243.07856500000344,243.07856500000344,243.07856500000344,244.07878039999923,244.07878039999923,244.9178782999952,v,1,0.8358692999900086,None,398324,001,2024-10-17_18h14.06.959,motor_sequence_learning_exp,2024.1.5,None,2024-10-17 18h14.14.971627 +0530,
50,c,20,2,82,2,,,,,244.92900820000796,,244.91912560000492,244.92900820000796,245.92899949999992,245.92899949999992,245.92899949999992,245.92899949999992,245.92899949999992,246.92898110000533,246.92898110000533,247.66855170000053,c,1,0.7251183999906061,None,398324,001,2024-10-17_18h14.06.959,motor_sequence_learning_exp,2024.1.5,None,2024-10-17 18h14.14.971627 +0530,
-150,z,20,3,83,3,,,,,247.6793825000059,,247.66974460000347,247.6793825000059,248.67958460000227,248.67958460000227,248.67958460000227,248.67958460000227,248.67958460000227,249.67971630000102,249.67971630000102,250.218524099997,z,1,0.534977399991476,None,398324,001,2024-10-17_18h14.06.959,motor_sequence_learning_exp,2024.1.5,None,2024-10-17 18h14.14.971627 +0530,
-50,x,21,0,84,0,,,,,250.23023299999477,,250.2196838999953,250.23023299999477,251.2300605000055,251.2300605000055,251.2300605000055,251.2300605000055,251.2300605000055,252.2304712000041,252.2304712000041,252.8854122000048,x,1,0.6503167999908328,None,398324,001,2024-10-17_18h14.06.959,motor_sequence_learning_exp,2024.1.5,None,2024-10-17 18h14.14.971627 +0530,
150,v,21,1,85,1,,,,,252.89760480000405,,252.8865625000035,252.89760480000405,253.89747680000437,253.89747680000437,253.89747680000437,253.89747680000437,253.89747680000437,254.89714420000382,254.89714420000382,255.83592549999594,v,1,0.9258583999908296,None,398324,001,2024-10-17_18h14.06.959,motor_sequence_learning_exp,2024.1.5,None,2024-10-17 18h14.14.971627 +0530,
50,c,21,2,86,2,,,,,255.84814299999562,,255.83709509999608,255.84814299999562,256.8475008999958,256.8475008999958,256.8475008999958,256.8475008999958,256.8475008999958,257.847695000004,257.847695000004,258.51945000000705,c,1,0.657577100006165,None,398324,001,2024-10-17_18h14.06.959,motor_sequence_learning_exp,2024.1.5,None,2024-10-17 18h14.14.971627 +0530,
-150,z,21,3,87,3,,,,,258.53138509999553,,258.52057649999915,258.53138509999553,259.5313662999979,259.5313662999979,259.5313662999979,259.5313662999979,259.5313662999979,260.5318069000059,260.5318069000059,261.0703106000001,z,1,0.530794699996477,None,398324,001,2024-10-17_18h14.06.959,motor_sequence_learning_exp,2024.1.5,None,2024-10-17 18h14.14.971627 +0530,
-50,x,22,0,88,0,,,,,261.082101299995,,261.07142570000724,261.082101299995,262.08194289999665,262.08194289999665,262.08194289999665,262.08194289999665,262.08194289999665,263.0819841000048,263.0819841000048,263.7721639999945,x,1,0.6769061999948462,None,398324,001,2024-10-17_18h14.06.959,motor_sequence_learning_exp,2024.1.5,None,2024-10-17 18h14.14.971627 +0530,
150,v,22,1,89,1,,,,,263.78280610000365,,263.7736677000066,263.78280610000365,264.7830180000019,264.7830180000019,264.7830180000019,264.7830180000019,264.7830180000019,265.7827491000062,265.7827491000062,266.92143660000875,v,1,1.1241088999959175,None,398324,001,2024-10-17_18h14.06.959,motor_sequence_learning_exp,2024.1.5,None,2024-10-17 18h14.14.971627 +0530,
50,c,22,2,90,2,,,,,266.93427599999995,,266.9225989999977,266.93427599999995,267.933194199999,267.933194199999,267.933194199999,267.933194199999,267.933194199999,268.9330872999999,268.9330872999999,269.6889605000033,c,1,0.7478971999953501,None,398324,001,2024-10-17_18h14.06.959,motor_sequence_learning_exp,2024.1.5,None,2024-10-17 18h14.14.971627 +0530,
-150,z,22,3,91,3,,,,,269.7003776000056,,269.69020199999795,269.7003776000056,270.71775250000064,270.71775250000064,270.71775250000064,270.71775250000064,270.71775250000064,271.70201580000867,271.70201580000867,272.31125320000865,z,1,0.5892202000104589,None,398324,001,2024-10-17_18h14.06.959,motor_sequence_learning_exp,2024.1.5,None,2024-10-17 18h14.14.971627 +0530,
-50,x,23,0,92,0,,,,,272.3339313000033,,272.31333570000425,272.3339313000033,273.31736410000303,273.31736410000303,273.31736410000303,273.31736410000303,273.33449540000584,274.31745780000347,274.31745780000347,275.0900005000003,x,1,0.7708366000006208,None,398324,001,2024-10-17_18h14.06.959,motor_sequence_learning_exp,2024.1.5,None,2024-10-17 18h14.14.971627 +0530,
150,v,23,1,93,1,,,,,275.1011279999948,,275.0912629000086,275.1011279999948,276.10205940000014,276.10205940000014,276.10205940000014,276.10205940000014,276.10205940000014,277.10113500000443,277.10113500000443,278.0751697999949,v,1,0.9721111999970162,None,398324,001,2024-10-17_18h14.06.959,motor_sequence_learning_exp,2024.1.5,None,2024-10-17 18h14.14.971627 +0530,
50,c,23,2,94,2,,,,,278.0853225000028,,278.0770110000012,278.0853225000028,279.0862108000001,279.0862108000001,279.0862108000001,279.0862108000001,279.0862108000001,280.08520660000795,280.08520660000795,280.89130580000347,c,1,0.8028220999985933,None,398324,001,2024-10-17_18h14.06.959,motor_sequence_learning_exp,2024.1.5,None,2024-10-17 18h14.14.971627 +0530,
-150,z,23,3,95,3,,,,,280.9020881000033,,280.8924641000049,280.9020881000033,281.9030170000042,281.9030170000042,281.9030170000042,281.9030170000042,281.9030170000042,282.9035828000051,282.9035828000051,283.8579879000026,z,1,0.9453898999927333,None,398324,001,2024-10-17_18h14.06.959,motor_sequence_learning_exp,2024.1.5,None,2024-10-17 18h14.14.971627 +0530,
-50,x,24,0,96,0,,,,,283.8694424999994,,283.859286100007,283.8694424999994,284.869583599997,284.869583599997,284.869583599997,284.869583599997,284.869583599997,285.8698660000082,285.8698660000082,286.5085328999994,x,1,0.6338054000079865,None,398324,001,2024-10-17_18h14.06.959,motor_sequence_learning_exp,2024.1.5,None,2024-10-17 18h14.14.971627 +0530,
150,v,24,1,97,1,,,,,286.51972739999474,,286.50960629999463,286.51972739999474,287.5198356000037,287.5198356000037,287.5198356000037,287.5198356000037,287.5198356000037,288.52039469999727,288.52039469999727,289.42505400000664,v,1,0.888902999999118,None,398324,001,2024-10-17_18h14.06.959,motor_sequence_learning_exp,2024.1.5,None,2024-10-17 18h14.14.971627 +0530,
50,c,24,2,98,2,,,,,289.437268499998,,289.4261875000084,289.437268499998,290.43709279999894,290.43709279999894,290.43709279999894,290.43709279999894,290.43709279999894,291.43706690000545,291.43706690000545,292.2427925999946,c,1,0.8030475999985356,None,398324,001,2024-10-17_18h14.06.959,motor_sequence_learning_exp,2024.1.5,None,2024-10-17 18h14.14.971627 +0530,
-150,z,24,3,99,3,,,,,292.25421690000803,,292.24391370000376,292.25421690000803,293.25463189999573,293.25463189999573,293.25463189999573,293.25463189999573,293.25463189999573,294.25461740000173,294.25461740000173,294.76000470000145,z,1,0.5000175000022864,None,398324,001,2024-10-17_18h14.06.959,motor_sequence_learning_exp,2024.1.5,None,2024-10-17 18h14.14.971627 +0530,
-50,x,25,0,100,0,,,,,294.77168350000284,,294.7611537000048,294.77168350000284,295.7718051999982,295.7718051999982,295.7718051999982,295.7718051999982,295.7718051999982,296.7716005999973,296.7716005999973,297.5094941999996,x,1,0.723608600004809,None,398324,001,2024-10-17_18h14.06.959,motor_sequence_learning_exp,2024.1.5,None,2024-10-17 18h14.14.971627 +0530,
150,v,25,1,101,1,,,,,297.52175470000657,,297.51061359999585,297.52175470000657,298.521940599996,298.521940599996,298.521940599996,298.521940599996,298.521940599996,299.5220155999996,299.5220155999996,300.4428356999997,v,1,0.9148961999890162,None,398324,001,2024-10-17_18h14.06.959,motor_sequence_learning_exp,2024.1.5,None,2024-10-17 18h14.14.971627 +0530,
50,c,25,2,102,2,,,,,300.4553392000089,,300.4437869999965,300.4553392000089,301.4713199999969,301.4713199999969,301.4713199999969,301.4713199999969,301.4713199999969,302.4556946000084,302.4556946000084,303.2940147000045,c,1,0.8262441999977455,None,398324,001,2024-10-17_18h14.06.959,motor_sequence_learning_exp,2024.1.5,None,2024-10-17 18h14.14.971627 +0530,
-150,z,25,3,103,3,,,,,303.3066409000021,,303.2951835999993,303.3066409000021,304.3061318999971,304.3061318999971,304.3061318999971,304.3061318999971,304.3061318999971,305.30640090000816,305.30640090000816,305.77833460000693,z,1,0.4646422999940114,None,398324,001,2024-10-17_18h14.06.959,motor_sequence_learning_exp,2024.1.5,None,2024-10-17 18h14.14.971627 +0530,
-50,x,26,0,104,0,,,,,305.7900227000064,,305.7794409000053,305.7900227000064,306.790135999996,306.790135999996,306.790135999996,306.790135999996,306.790135999996,307.790012700003,307.790012700003,308.52901860000566,x,1,0.7290108000015607,None,398324,001,2024-10-17_18h14.06.959,motor_sequence_learning_exp,2024.1.5,None,2024-10-17 18h14.14.971627 +0530,
150,v,26,1,105,1,,,,,308.5407358000084,,308.53013590000046,308.5407358000084,309.54104969999753,309.54104969999753,309.54104969999753,309.54104969999753,309.54104969999753,310.540929099996,310.540929099996,311.51288740000746,v,1,0.9706278999947244,None,398324,001,2024-10-17_18h14.06.959,motor_sequence_learning_exp,2024.1.5,None,2024-10-17 18h14.14.971627 +0530,
50,c,26,2,106,2,,,,,311.5241858000081,,311.5139999999956,311.5241858000081,312.524843399995,312.524843399995,312.524843399995,312.524843399995,312.524843399995,313.52480139999534,313.52480139999534,314.39616400000523,c,1,0.8572725999983959,None,398324,001,2024-10-17_18h14.06.959,motor_sequence_learning_exp,2024.1.5,None,2024-10-17 18h14.14.971627 +0530,
-150,z,26,3,107,3,,,,,314.40852989999985,,314.39731840000604,314.40852989999985,315.4082469999994,315.4082469999994,315.4082469999994,315.4082469999994,315.4082469999994,316.408331300001,316.408331300001,317.14771469999687,z,1,0.7377317000064068,None,398324,001,2024-10-17_18h14.06.959,motor_sequence_learning_exp,2024.1.5,None,2024-10-17 18h14.14.971627 +0530,
-50,x,27,0,108,0,,,,,317.1586476999946,,317.14890600000217,317.1586476999946,318.1586876000074,318.1586876000074,318.1586876000074,318.1586876000074,318.1586876000074,319.1592209000082,319.1592209000082,319.78114180000557,x,1,0.5987901000044076,None,398324,001,2024-10-17_18h14.06.959,motor_sequence_learning_exp,2024.1.5,None,2024-10-17 18h14.14.971627 +0530,
150,v,27,1,109,1,,,,,319.79245470000023,,319.78241739999794,319.79245470000023,320.79313869999896,320.79313869999896,320.79313869999896,320.79313869999896,320.79313869999896,321.7925993999961,321.7925993999961,322.8450909999956,v,1,1.0374841000011656,None,398324,001,2024-10-17_18h14.06.959,motor_sequence_learning_exp,2024.1.5,None,2024-10-17 18h14.14.971627 +0530,
50,c,27,2,110,2,,,,,322.8596055000089,,322.84612289999495,322.8596055000089,323.86048650000885,323.86048650000885,323.86048650000885,323.86048650000885,323.86048650000885,324.86045629999717,324.86045629999717,325.86627379999845,c,1,1.0041433000005782,None,398324,001,2024-10-17_18h14.06.959,motor_sequence_learning_exp,2024.1.5,None,2024-10-17 18h14.14.971627 +0530,
-150,z,27,3,111,3,,,,,325.8765729000006,,325.8680127999978,325.8765729000006,326.8770072000043,326.8770072000043,326.8770072000043,326.8770072000043,326.8770072000043,327.8775835999986,327.8775835999986,328.566055400006,z,1,0.6867599999968661,None,398324,001,2024-10-17_18h14.06.959,motor_sequence_learning_exp,2024.1.5,None,2024-10-17 18h14.14.971627 +0530,
-50,x,28,0,112,0,,,,,328.57743059999484,,328.567278100003,328.57743059999484,329.5775292000035,329.5775292000035,329.5775292000035,329.5775292000035,329.5775292000035,330.5777784999955,330.5777784999955,331.33293520000007,x,1,0.7450898999959463,None,398324,001,2024-10-17_18h14.06.959,motor_sequence_learning_exp,2024.1.5,None,2024-10-17 18h14.14.971627 +0530,
150,v,28,1,113,1,,,,,331.3445907999994,,331.33418230000825,331.3445907999994,332.34486579999793,332.34486579999793,332.34486579999793,332.34486579999793,332.34486579999793,333.34601350000594,333.34601350000594,334.15035999999964,v,1,0.7993673000019044,None,398324,001,2024-10-17_18h14.06.959,motor_sequence_learning_exp,2024.1.5,None,2024-10-17 18h14.14.971627 +0530,
50,c,28,2,114,2,,,,,334.16192020000017,,334.15150330000324,334.16192020000017,335.16200739999476,335.16200739999476,335.16200739999476,335.16200739999476,335.16200739999476,336.1619890000002,336.1619890000002,336.9168774999998,c,1,0.7378014999994775,None,398324,001,2024-10-17_18h14.06.959,motor_sequence_learning_exp,2024.1.5,None,2024-10-17 18h14.14.971627 +0530,
-150,z,28,3,115,3,,,,,336.92882899999677,,336.91798389999894,336.92882899999677,337.9303964999999,337.9303964999999,337.9303964999999,337.9303964999999,337.9303964999999,338.92937480000546,338.92937480000546,339.5686144000065,z,1,0.6340210000053048,None,398324,001,2024-10-17_18h14.06.959,motor_sequence_learning_exp,2024.1.5,None,2024-10-17 18h14.14.971627 +0530,
-50,x,29,0,116,0,,,,,339.5793874999945,,339.5697572000063,339.5793874999945,340.57991060000495,340.57991060000495,340.57991060000495,340.57991060000495,340.57991060000495,341.596042899997,341.596042899997,342.3683472999983,x,1,0.7636135000066133,None,398324,001,2024-10-17_18h14.06.959,motor_sequence_learning_exp,2024.1.5,None,2024-10-17 18h14.14.971627 +0530,
150,v,29,1,117,1,,,,,342.37999810000474,,342.37001909999526,342.37999810000474,343.38004550000187,343.38004550000187,343.38004550000187,343.38004550000187,343.38004550000187,344.38047960000404,344.38047960000404,345.23676300000807,v,1,0.8302224999933969,None,398324,001,2024-10-17_18h14.06.959,motor_sequence_learning_exp,2024.1.5,None,2024-10-17 18h14.14.971627 +0530,
50,c,29,2,118,2,,,,,345.2474310999969,,345.2379751999979,345.2474310999969,346.24759880000784,346.24759880000784,346.24759880000784,346.24759880000784,346.24759880000784,347.2471430000005,347.2471430000005,348.01980690000346,c,1,0.7698636999994051,None,398324,001,2024-10-17_18h14.06.959,motor_sequence_learning_exp,2024.1.5,None,2024-10-17 18h14.14.971627 +0530,
-150,z,29,3,119,3,,,,,348.03101950000564,,348.02101409999887,348.03101950000564,349.031642300004,349.031642300004,349.031642300004,349.031642300004,349.031642300004,350.0310305000021,350.0310305000021,350.7199738000054,z,1,0.6826367000030586,None,398324,001,2024-10-17_18h14.06.959,motor_sequence_learning_exp,2024.1.5,None,2024-10-17 18h14.14.971627 +0530,
-50,x,30,0,120,0,,,,,350.73152149999805,,350.72106179999537,350.73152149999805,351.7316661000077,351.7316661000077,351.7316661000077,351.7316661000077,351.7316661000077,352.7316944000049,352.7316944000049,353.41985629999544,x,1,0.6740633000008529,None,398324,001,2024-10-17_18h14.06.959,motor_sequence_learning_exp,2024.1.5,None,2024-10-17 18h14.14.971627 +0530,
150,v,30,1,121,1,,,,,353.431822700004,,353.4210168999998,353.431822700004,354.43243470000743,354.43243470000743,354.43243470000743,354.43243470000743,354.43243470000743,355.4322125000035,355.4322125000035,356.3371870999981,v,1,0.8885468999942532,None,398324,001,2024-10-17_18h14.06.959,motor_sequence_learning_exp,2024.1.5,None,2024-10-17 18h14.14.971627 +0530,
50,c,30,2,122,2,,,,,356.3493518000032,,356.3383712000068,356.3493518000032,357.34941949999484,357.34941949999484,357.34941949999484,357.34941949999484,357.34941949999484,358.3498241000052,358.3498241000052,359.1711704000045,c,1,0.8049581000086619,None,398324,001,2024-10-17_18h14.06.959,motor_sequence_learning_exp,2024.1.5,None,2024-10-17 18h14.14.971627 +0530,
-150,z,30,3,123,3,,,,,359.18322429999535,,359.1723634999944,359.18322429999535,360.1831478999957,360.1831478999957,360.1831478999957,360.1831478999957,360.1831478999957,361.18363850000605,361.18363850000605,361.6722977000027,z,1,0.48427620000438765,None,398324,001,2024-10-17_18h14.06.959,motor_sequence_learning_exp,2024.1.5,None,2024-10-17 18h14.14.971627 +0530,
-50,x,31,0,124,0,,,,,361.6835382999998,,361.6734643999953,361.6835382999998,362.6834983000008,362.6834983000008,362.6834983000008,362.6834983000008,362.6834983000008,363.6834707000089,363.6834707000089,364.355630799997,x,1,0.6587870000075782,None,398324,001,2024-10-17_18h14.06.959,motor_sequence_learning_exp,2024.1.5,None,2024-10-17 18h14.14.971627 +0530,
150,v,31,1,125,1,,,,,364.3671771000081,,364.35674370000197,364.3671771000081,365.3675224000035,365.3675224000035,365.3675224000035,365.3675224000035,365.3675224000035,366.36736240000755,366.36736240000755,367.78952580000623,v,1,1.4054104999959236,None,398324,001,2024-10-17_18h14.06.959,motor_sequence_learning_exp,2024.1.5,None,2024-10-17 18h14.14.971627 +0530,
50,c,31,2,126,2,,,,,367.8013231000077,,367.7907101000019,367.8013231000077,368.8010881999944,368.8010881999944,368.8010881999944,368.8010881999944,368.8010881999944,369.8011356000061,369.8011356000061,370.6909772000072,c,1,0.8844416000065394,None,398324,001,2024-10-17_18h14.06.959,motor_sequence_learning_exp,2024.1.5,None,2024-10-17 18h14.14.971627 +0530,
-150,z,31,3,127,3,,,,,370.7016702999972,,370.69206430000486,370.7016702999972,371.7017832999991,371.7017832999991,371.7017832999991,371.7017832999991,371.7017832999991,372.7018495999946,372.7018495999946,373.27419100000407,z,1,0.5558682999981102,None,398324,001,2024-10-17_18h14.06.959,motor_sequence_learning_exp,2024.1.5,None,2024-10-17 18h14.14.971627 +0530,
-50,x,32,0,128,0,,,,,373.28548439999577,,373.2754949999944,373.28548439999577,374.28593980000005,374.28593980000005,374.28593980000005,374.28593980000005,374.28593980000005,375.28563980000035,375.28563980000035,376.02419850000297,x,1,0.7262061000074027,None,398324,001,2024-10-17_18h14.06.959,motor_sequence_learning_exp,2024.1.5,None,2024-10-17 18h14.14.971627 +0530,
150,v,32,1,129,1,,,,,376.03581290000875,,376.025292899998,376.03581290000875,377.03609629999846,377.03609629999846,377.03609629999846,377.03609629999846,377.03609629999846,378.03623929999594,378.03623929999594,378.9248268999945,v,1,0.8811666000110563,None,398324,001,2024-10-17_18h14.06.959,motor_sequence_learning_exp,2024.1.5,None,2024-10-17 18h14.14.971627 +0530,
50,c,32,2,130,2,,,,,378.9373162999982,,378.9259485000075,378.9373162999982,379.9368080999993,379.9368080999993,379.9368080999993,379.9368080999993,379.9368080999993,380.937047600004,380.937047600004,381.6924517000007,c,1,0.7435388000012608,None,398324,001,2024-10-17_18h14.06.959,motor_sequence_learning_exp,2024.1.5,None,2024-10-17 18h14.14.971627 +0530,
-150,z,32,3,131,3,,,,,381.7035704000009,,381.69369800000277,381.7035704000009,382.7046577000001,382.7046577000001,382.7046577000001,382.7046577000001,382.7046577000001,383.70374650000304,383.70374650000304,384.40982060000533,z,1,0.7025389000045834,None,398324,001,2024-10-17_18h14.06.959,motor_sequence_learning_exp,2024.1.5,None,2024-10-17 18h14.14.971627 +0530,
-50,x,33,0,132,0,,,,,384.42148380000435,,384.41096639999887,384.42148380000435,385.42254390000016,385.42254390000016,385.42254390000016,385.42254390000016,385.42254390000016,386.4210899000027,386.4210899000027,387.2266501999984,x,1,0.798216199997114,None,398324,001,2024-10-17_18h14.06.959,motor_sequence_learning_exp,2024.1.5,None,2024-10-17 18h14.14.971627 +0530,
150,v,33,1,133,1,,,,,387.2383023000002,,387.2278701000032,387.2383023000002,388.23847430000023,388.23847430000023,388.23847430000023,388.23847430000023,388.23847430000023,389.2387449999951,389.2387449999951,390.37721160000365,v,1,1.1218532000057166,None,398324,001,2024-10-17_18h14.06.959,motor_sequence_learning_exp,2024.1.5,None,2024-10-17 18h14.14.971627 +0530,
50,c,33,2,134,2,,,,,390.3885209,,390.37832940000226,390.3885209,391.38931250000314,391.38931250000314,391.38931250000314,391.38931250000314,391.38931250000314,392.3889022000076,392.3889022000076,393.99397140000656,c,1,1.5934205999947153,None,398324,001,2024-10-17_18h14.06.959,motor_sequence_learning_exp,2024.1.5,None,2024-10-17 18h14.14.971627 +0530,
-150,z,33,3,135,3,,,,,394.0061451000074,,393.99511319999874,394.0061451000074,395.00593860000663,395.00593860000663,395.00593860000663,395.00593860000663,395.00593860000663,396.00621940000565,396.00621940000565,396.5620806000079,z,1,0.5525991999893449,None,398324,001,2024-10-17_18h14.06.959,motor_sequence_learning_exp,2024.1.5,None,2024-10-17 18h14.14.971627 +0530,
-50,x,34,0,136,0,,,,,396.5744061000005,,396.5631868000055,396.5744061000005,397.5734875000053,397.5734875000053,397.5734875000053,397.5734875000053,397.5734875000053,398.57349100000283,398.57349100000283,399.4623933999974,x,1,0.8866898999986006,None,398324,001,2024-10-17_18h14.06.959,motor_sequence_learning_exp,2024.1.5,None,2024-10-17 18h14.14.971627 +0530,
150,v,34,1,137,1,,,,,399.47371099999873,,399.4635804999998,399.47371099999873,400.4736644000077,400.4736644000077,400.4736644000077,400.4736644000077,400.4736644000077,401.4737027000083,401.4737027000083,402.54657790000783,v,1,1.070364500003052,None,398324,001,2024-10-17_18h14.06.959,motor_sequence_learning_exp,2024.1.5,None,2024-10-17 18h14.14.971627 +0530,
50,c,34,2,138,2,,,,,402.55764310000814,,402.54783229999884,402.55764310000814,403.5577212000062,403.5577212000062,403.5577212000062,403.5577212000062,403.5577212000062,404.5576610999997,404.5576610999997,405.46648730000015,c,1,0.9054102000081912,None,398324,001,2024-10-17_18h14.06.959,motor_sequence_learning_exp,2024.1.5,None,2024-10-17 18h14.14.971627 +0530,
-150,z,34,3,139,3,,,,,405.4748202000046,,405.4676369000081,405.4748202000046,406.4747919000074,406.4747919000074,406.4747919000074,406.4747919000074,406.4747919000074,407.4751832000038,407.4751832000038,407.99760460000834,z,1,0.514837599999737,None,398324,001,2024-10-17_18h14.06.959,motor_sequence_learning_exp,2024.1.5,None,2024-10-17 18h14.14.971627 +0530,
-50,x,35,0,140,0,,,,,408.00902640000277,,407.9987683000072,408.00902640000277,409.00877309999487,409.00877309999487,409.00877309999487,409.00877309999487,409.00877309999487,410.00843899999745,410.00843899999745,410.78080890000274,x,1,0.7624314999993658,None,398324,001,2024-10-17_18h14.06.959,motor_sequence_learning_exp,2024.1.5,None,2024-10-17 18h14.14.971627 +0530,
150,v,35,1,141,1,,,,,410.79256679999526,,410.7820228000055,410.79256679999526,411.7923934999999,411.7923934999999,411.7923934999999,411.7923934999999,411.7923934999999,412.7932232000021,412.7932232000021,413.6140177000052,v,1,0.8094072999956552,None,398324,001,2024-10-17_18h14.06.959,motor_sequence_learning_exp,2024.1.5,None,2024-10-17 18h14.14.971627 +0530,
50,c,35,2,142,2,,,,,413.6266265000013,,413.61532219999935,413.6266265000013,414.62639079999644,414.62639079999644,414.62639079999644,414.62639079999644,414.62639079999644,415.6269334999961,415.6269334999961,416.4811816000001,c,1,0.838561500000651,None,398324,001,2024-10-17_18h14.06.959,motor_sequence_learning_exp,2024.1.5,None,2024-10-17 18h14.14.971627 +0530,
-150,z,35,3,143,3,,,,,416.49342949999846,,416.48229580000043,416.49342949999846,417.49356940000143,417.49356940000143,417.49356940000143,417.49356940000143,417.49356940000143,418.49348859999736,418.49348859999736,419.0824283999973,z,1,0.5773705000028713,None,398324,001,2024-10-17_18h14.06.959,motor_sequence_learning_exp,2024.1.5,None,2024-10-17 18h14.14.971627 +0530,
-50,x,36,0,144,0,,,,,419.09439559999737,,419.0836740000086,419.09439559999737,420.09398079999664,420.09398079999664,420.09398079999664,420.09398079999664,420.09398079999664,421.09418100000767,421.09418100000767,421.9333140999952,x,1,0.8355427000060445,None,398324,001,2024-10-17_18h14.06.959,motor_sequence_learning_exp,2024.1.5,None,2024-10-17 18h14.14.971627 +0530,
150,v,36,1,145,1,,,,,421.94447869999567,,421.9345012999984,421.94447869999567,422.944470500006,422.944470500006,422.944470500006,422.944470500006,422.944470500006,423.94444459999795,423.94444459999795,425.06650840000657,v,1,1.1064964000106556,None,398324,001,2024-10-17_18h14.06.959,motor_sequence_learning_exp,2024.1.5,None,2024-10-17 18h14.14.971627 +0530,
50,c,36,2,146,2,,,,,425.0783983000001,,425.0677025000041,425.0783983000001,426.0783650000085,426.0783650000085,426.0783650000085,426.0783650000085,426.0783650000085,427.0784111999965,427.0784111999965,427.9352832000004,c,1,0.8457817000016803,None,398324,001,2024-10-17_18h14.06.959,motor_sequence_learning_exp,2024.1.5,None,2024-10-17 18h14.14.971627 +0530,
-150,z,36,3,147,3,,,,,427.9457825999998,,427.93636429999606,427.9457825999998,428.96122290000494,428.96122290000494,428.96122290000494,428.96122290000494,428.96122290000494,429.9455869999947,429.9455869999947,430.56737980000617,z,1,0.6087158000009367,None,398324,001,2024-10-17_18h14.06.959,motor_sequence_learning_exp,2024.1.5,None,2024-10-17 18h14.14.971627 +0530,
-50,x,37,0,148,0,,,,,430.57951749999484,,430.56852689999505,430.57951749999484,431.5796694000019,431.5796694000019,431.5796694000019,431.5796694000019,431.5796694000019,432.5796427000023,432.5796427000023,434.820696099996,x,1,2.2382942999975057,None,398324,001,2024-10-17_18h14.06.959,motor_sequence_learning_exp,2024.1.5,None,2024-10-17 18h14.14.971627 +0530,
150,v,37,1,149,1,,,,,434.8297634000046,,434.8220316000079,434.8297634000046,435.8311657000013,435.8311657000013,435.8311657000013,435.8311657000013,435.8311657000013,436.83063579999725,436.83063579999725,437.768845700004,v,1,0.9364684000029229,None,398324,001,2024-10-17_18h14.06.959,motor_sequence_learning_exp,2024.1.5,None,2024-10-17 18h14.14.971627 +0530,
50,c,37,2,150,2,,,,,437.7806127000076,,437.76999060000526,437.7806127000076,438.7806108000077,438.7806108000077,438.7806108000077,438.7806108000077,438.7806108000077,439.79732949999743,439.79732949999743,440.6700222000072,c,1,0.86591770000814,None,398324,001,2024-10-17_18h14.06.959,motor_sequence_learning_exp,2024.1.5,None,2024-10-17 18h14.14.971627 +0530,
-150,z,37,3,151,3,,,,,440.68090530000336,,440.67116729999543,440.68090530000336,441.6811962000065,441.6811962000065,441.6811962000065,441.6811962000065,441.6811962000065,442.68119390000356,442.68119390000356,443.2209978000028,z,1,0.5236203000094974,None,398324,001,2024-10-17_18h14.06.959,motor_sequence_learning_exp,2024.1.5,None,2024-10-17 18h14.14.971627 +0530,
-50,x,38,0,152,0,,,,,443.23245949999546,,443.222185599996,443.23245949999546,444.2318940999976,444.2318940999976,444.2318940999976,444.2318940999976,444.2318940999976,445.2318879999948,445.2318879999948,445.93694260000484,x,1,0.7003613999986555,None,398324,001,2024-10-17_18h14.06.959,motor_sequence_learning_exp,2024.1.5,None,2024-10-17 18h14.14.971627 +0530,
150,v,38,1,153,1,,,,,445.9485635000019,,445.9380741000059,445.9485635000019,446.9494649999979,446.9494649999979,446.9494649999979,446.9494649999979,446.9494649999979,447.9485493999964,447.9485493999964,448.80440680000174,v,1,0.8409688000101596,None,398324,001,2024-10-17_18h14.06.959,motor_sequence_learning_exp,2024.1.5,None,2024-10-17 18h14.14.971627 +0530,
50,c,38,2,154,2,,,,,448.81566629999725,,448.80572940000275,448.81566629999725,449.8163610000047,449.8163610000047,449.8163610000047,449.8163610000047,449.8163610000047,450.8163801000046,450.8163801000046,451.5401031000074,c,1,0.718580100001418,None,398324,001,2024-10-17_18h14.06.959,motor_sequence_learning_exp,2024.1.5,None,2024-10-17 18h14.14.971627 +0530,
-150,z,38,3,155,3,,,,,451.5496353000053,,451.54133950000687,451.5496353000053,452.5500910999981,452.5500910999981,452.5500910999981,452.5500910999981,452.5500910999981,453.5498238,453.5498238,454.03719669999555,z,1,0.47359270000015385,None,398324,001,2024-10-17_18h14.06.959,motor_sequence_learning_exp,2024.1.5,None,2024-10-17 18h14.14.971627 +0530,
-50,x,39,0,156,0,,,,,454.0501682000031,,454.03822230000515,454.0501682000031,455.05079890000343,455.05079890000343,455.05079890000343,455.05079890000343,455.05079890000343,456.06628700000874,456.06628700000874,456.7895739000087,x,1,0.7207974000048125,None,398324,001,2024-10-17_18h14.06.959,motor_sequence_learning_exp,2024.1.5,None,2024-10-17 18h14.14.971627 +0530,
150,v,39,1,157,1,,,,,456.80074720000266,,456.79080260000774,456.80074720000266,457.80101470000227,457.80101470000227,457.80101470000227,457.80101470000227,457.80101470000227,458.80178989999695,458.80178989999695,459.8551753000065,v,1,1.0449043000116944,None,398324,001,2024-10-17_18h14.06.959,motor_sequence_learning_exp,2024.1.5,None,2024-10-17 18h14.14.971627 +0530,
50,c,39,2,158,2,,,,,459.8678510000027,,459.856294600002,459.8678510000027,460.88413829999627,460.88413829999627,460.88413829999627,460.88413829999627,460.88413829999627,461.8684077000071,461.8684077000071,462.7242574999982,c,1,0.8507334000023548,None,398324,001,2024-10-17_18h14.06.959,motor_sequence_learning_exp,2024.1.5,None,2024-10-17 18h14.14.971627 +0530,
-150,z,39,3,159,3,,,,,462.73502750000625,,462.72545060000266,462.73502750000625,463.7350856999983,463.7350856999983,463.7350856999983,463.7350856999983,463.7350856999983,464.7353105000075,464.7353105000075,465.29094229999464,z,1,0.5492701999901328,None,398324,001,2024-10-17_18h14.06.959,motor_sequence_learning_exp,2024.1.5,None,2024-10-17 18h14.14.971627 +0530,
-50,x,40,0,160,0,,,,,465.30229629999667,,465.2921309999947,465.30229629999667,466.3022171000048,466.3022171000048,466.3022171000048,466.3022171000048,466.3022171000048,467.3022711000085,467.3022711000085,468.00794690000475,x,1,0.6931753999961074,None,398324,001,2024-10-17_18h14.06.959,motor_sequence_learning_exp,2024.1.5,None,2024-10-17 18h14.14.971627 +0530,
150,v,40,1,161,1,,,,,468.01937930000713,,468.00915529999475,468.01937930000713,469.01989969999704,469.01989969999704,469.01989969999704,469.01989969999704,469.01989969999704,470.01948289999564,470.01948289999564,470.99202360000345,v,1,0.9644628999958513,None,398324,001,2024-10-17_18h14.06.959,motor_sequence_learning_exp,2024.1.5,None,2024-10-17 18h14.14.971627 +0530,
50,c,40,2,162,2,,,,,471.0031269000028,,470.99315029999707,471.0031269000028,472.00356830000237,472.00356830000237,472.00356830000237,472.00356830000237,472.00356830000237,473.0034319999977,473.0034319999977,473.7929695000057,c,1,0.7860906999994768,None,398324,001,2024-10-17_18h14.06.959,motor_sequence_learning_exp,2024.1.5,None,2024-10-17 18h14.14.971627 +0530,
-150,z,40,3,163,3,,,,,473.8035254999995,,473.7941962000041,473.8035254999995,474.8044829999999,474.8044829999999,474.8044829999999,474.8044829999999,474.8044829999999,475.8036948000081,475.8036948000081,476.4597805999947,z,1,0.6528368999861414,None,398324,001,2024-10-17_18h14.06.959,motor_sequence_learning_exp,2024.1.5,None,2024-10-17 18h14.14.971627 +0530,
-50,x,41,0,164,0,,,,,476.47075409999525,,476.4608758999966,476.47075409999525,477.471206000002,477.471206000002,477.471206000002,477.471206000002,477.471206000002,478.47131989999616,478.47131989999616,479.1777011999948,x,1,0.7009426000004169,None,398324,001,2024-10-17_18h14.06.959,motor_sequence_learning_exp,2024.1.5,None,2024-10-17 18h14.14.971627 +0530,
150,v,41,1,165,1,,,,,479.1878455999977,,479.17892750000465,479.1878455999977,480.1890381999983,480.1890381999983,480.1890381999983,480.1890381999983,480.1890381999983,481.1882118000067,481.1882118000067,482.15954670000065,v,1,0.9557444999954896,None,398324,001,2024-10-17_18h14.06.959,motor_sequence_learning_exp,2024.1.5,None,2024-10-17 18h14.14.971627 +0530,
50,c,41,2,166,2,,,,,482.1727858999948,,482.1606352999952,482.1727858999948,483.1724061999994,483.1724061999994,483.1724061999994,483.1724061999994,483.1724061999994,484.17263600000297,484.17263600000297,485.0611336000002,c,1,0.8842914999986533,None,398324,001,2024-10-17_18h14.06.959,motor_sequence_learning_exp,2024.1.5,None,2024-10-17 18h14.14.971627 +0530,
-150,z,41,3,167,3,,,,,485.0725192999962,,485.06230580000556,485.0725192999962,486.0727360000019,486.0727360000019,486.0727360000019,486.0727360000019,486.0727360000019,487.0726138000027,487.0726138000027,487.6140138000046,z,1,0.5308032999892021,None,398324,001,2024-10-17_18h14.06.959,motor_sequence_learning_exp,2024.1.5,None,2024-10-17 18h14.14.971627 +0530,
-50,x,42,0,168,0,,,,,487.6388971999986,,487.61606110000866,487.6388971999986,488.62295489999815,488.62295489999815,488.62295489999815,488.62295489999815,488.6406713000033,489.6385317999957,489.6385317999957,490.4292868000048,x,1,0.7874431000091136,None,398324,001,2024-10-17_18h14.06.959,motor_sequence_learning_exp,2024.1.5,None,2024-10-17 18h14.14.971627 +0530,
150,v,42,1,169,1,,,,,490.4397551000002,,490.4304400999972,490.4397551000002,491.4417725999956,491.4417725999956,491.4417725999956,491.4417725999956,491.4417725999956,492.4403874999989,492.4403874999989,493.4124344000011,v,1,0.9589146999933291,None,398324,001,2024-10-17_18h14.06.959,motor_sequence_learning_exp,2024.1.5,None,2024-10-17 18h14.14.971627 +0530,
50,c,42,2,170,2,,,,,493.42374880000716,,493.4136626999971,493.42374880000716,494.4245213999966,494.4245213999966,494.4245213999966,494.4245213999966,494.4245213999966,495.4245437000063,495.4245437000063,496.3310550000024,c,1,0.893835199996829,None,398324,001,2024-10-17_18h14.06.959,motor_sequence_learning_exp,2024.1.5,None,2024-10-17 18h14.14.971627 +0530,
-150,z,42,3,171,3,,,,,496.3411869999982,,496.3328162999969,496.3411869999982,497.3412018999952,497.3412018999952,497.3412018999952,497.3412018999952,497.3412018999952,498.3412185000052,498.3412185000052,498.91658269999607,z,1,0.5552617000066675,None,398324,001,2024-10-17_18h14.06.959,motor_sequence_learning_exp,2024.1.5,None,2024-10-17 18h14.14.971627 +0530,
-50,x,43,0,172,0,,,,,498.92450310000277,,498.9183325000049,498.92450310000277,499.92599839999457,499.92599839999457,499.92599839999457,499.92599839999457,499.92599839999457,500.9252381999977,500.9252381999977,501.7140614999953,x,1,0.774838199999067,None,398324,001,2024-10-17_18h14.06.959,motor_sequence_learning_exp,2024.1.5,None,2024-10-17 18h14.14.971627 +0530,
150,v,43,1,173,1,,,,,501.72531540000637,,501.7153583000036,501.72531540000637,502.72538319999876,502.72538319999876,502.72538319999876,502.72538319999876,502.72538319999876,503.7256728000066,503.7256728000066,504.6142538999993,v,1,0.8729246000002604,None,398324,001,2024-10-17_18h14.06.959,motor_sequence_learning_exp,2024.1.5,None,2024-10-17 18h14.14.971627 +0530,
50,c,43,2,174,2,,,,,504.62641510000685,,504.61537660000613,504.62641510000685,505.6260945999966,505.6260945999966,505.6260945999966,505.6260945999966,505.6260945999966,506.62666710000485,506.62666710000485,507.4000783000083,c,1,0.7419341999921016,None,398324,001,2024-10-17_18h14.06.959,motor_sequence_learning_exp,2024.1.5,None,2024-10-17 18h14.14.971627 +0530,
-150,z,43,3,175,3,,,,,507.4115802000015,,507.4021300000022,507.4115802000015,508.40962439999566,508.40962439999566,508.40962439999566,508.40962439999566,508.40962439999566,509.41041860000405,509.41041860000405,509.95517679999466,z,1,0.5293935999943642,None,398324,001,2024-10-17_18h14.06.959,motor_sequence_learning_exp,2024.1.5,None,2024-10-17 18h14.14.971627 +0530,
-50,x,44,0,176,0,,,,,509.975932500005,,509.95636120000563,509.975932500005,510.96081210000557,510.96081210000557,510.96081210000557,510.96081210000557,510.9924255000078,511.96095239999704,511.96095239999704,512.7332675000071,x,1,0.7708159999892814,None,398324,001,2024-10-17_18h14.06.959,motor_sequence_learning_exp,2024.1.5,None,2024-10-17 18h14.14.971627 +0530,
150,v,44,1,177,1,,,,,512.7440710999945,,512.7344352000073,512.7440710999945,513.7443728000071,513.7443728000071,513.7443728000071,513.7443728000071,513.7443728000071,514.7449993000046,514.7449993000046,515.7331951000087,v,1,0.9823062999930698,None,398324,001,2024-10-17_18h14.06.959,motor_sequence_learning_exp,2024.1.5,None,2024-10-17 18h14.14.971627 +0530,
50,c,44,2,178,2,,,,,515.7444563000026,,515.7347593000013,515.7444563000026,516.7448130999983,516.7448130999983,516.7448130999983,516.7448130999983,516.7448130999983,517.7448985000083,517.7448985000083,518.5160613000044,c,1,0.7434457999916049,None,398324,001,2024-10-17_18h14.06.959,motor_sequence_learning_exp,2024.1.5,None,2024-10-17 18h14.14.971627 +0530,
-150,z,44,3,179,3,,,,,518.5291820999992,,518.5172781000001,518.5291820999992,519.5451552000013,519.5451552000013,519.5451552000013,519.5451552000013,519.5451552000013,520.5285773000069,520.5285773000069,521.1176521000016,z,1,0.5772891999949934,None,398324,001,2024-10-17_18h14.06.959,motor_sequence_learning_exp,2024.1.5,None,2024-10-17 18h14.14.971627 +0530,
-50,x,45,0,180,0,,,,,521.1315443000058,,521.1189295000077,521.1315443000058,522.1290719999961,522.1290719999961,522.1290719999961,522.1290719999961,522.1487867999967,523.1294042000081,523.1294042000081,523.9352843000088,x,1,0.7976441000064369,None,398324,001,2024-10-17_18h14.06.959,motor_sequence_learning_exp,2024.1.5,None,2024-10-17 18h14.14.971627 +0530,
150,v,45,1,181,1,,,,,523.9461089999968,,523.9367035000032,523.9461089999968,524.9460628000088,524.9460628000088,524.9460628000088,524.9460628000088,524.9460628000088,525.9462848999974,525.9462848999974,526.8353289000079,v,1,0.8764028000005055,None,398324,001,2024-10-17_18h14.06.959,motor_sequence_learning_exp,2024.1.5,None,2024-10-17 18h14.14.971627 +0530,
50,c,45,2,182,2,,,,,526.8465675000043,,526.8366668999952,526.8465675000043,527.8465724999987,527.8465724999987,527.8465724999987,527.8465724999987,527.8465724999987,528.847065599999,528.847065599999,529.6025232999964,c,1,0.7479489999968791,None,398324,001,2024-10-17_18h14.06.959,motor_sequence_learning_exp,2024.1.5,None,2024-10-17 18h14.14.971627 +0530,
-150,z,45,3,183,3,,,,,529.614161000005,,529.6036164999969,529.614161000005,530.6140918000019,530.6140918000019,530.6140918000019,530.6140918000019,530.6140918000019,531.6139342999959,531.6139342999959,532.1366410000046,z,1,0.5176812999998219,None,398324,001,2024-10-17_18h14.06.959,motor_sequence_learning_exp,2024.1.5,None,2024-10-17 18h14.14.971627 +0530,
-50,x,46,0,184,0,,,,,532.1478210000059,,532.137753300005,532.1478210000059,533.1481348999951,533.1481348999951,533.1481348999951,533.1481348999951,533.1481348999951,534.1475533000048,534.1475533000048,535.0030281000072,x,1,0.8474366000009468,None,398324,001,2024-10-17_18h14.06.959,motor_sequence_learning_exp,2024.1.5,None,2024-10-17 18h14.14.971627 +0530,
150,v,46,1,185,1,,,,,535.0147359999974,,535.0042724999948,535.0147359999974,536.015635600008,536.015635600008,536.015635600008,536.015635600008,536.015635600008,537.0303375000076,537.0303375000076,537.9879810999992,v,1,0.9548019999929238,None,398324,001,2024-10-17_18h14.06.959,motor_sequence_learning_exp,2024.1.5,None,2024-10-17 18h14.14.971627 +0530,
50,c,46,2,186,2,,,,,537.9985500000039,,537.9893903000047,537.9985500000039,538.998963799997,538.998963799997,538.998963799997,538.998963799997,538.998963799997,539.9986470000003,539.9986470000003,541.8709409000003,c,1,1.86317379999673,None,398324,001,2024-10-17_18h14.06.959,motor_sequence_learning_exp,2024.1.5,None,2024-10-17 18h14.14.971627 +0530,
-150,z,46,3,187,3,,,,,541.8826251999999,,541.8721019000077,541.8826251999999,542.8828735999996,542.8828735999996,542.8828735999996,542.8828735999996,542.8828735999996,543.8828477000061,543.8828477000061,544.5220179000025,z,1,0.6253448999923421,None,398324,001,2024-10-17_18h14.06.959,motor_sequence_learning_exp,2024.1.5,None,2024-10-17 18h14.14.971627 +0530,
-50,x,47,0,188,0,,,,,544.5330938999978,,544.5233981000056,544.5330938999978,545.5333455000073,545.5333455000073,545.5333455000073,545.5333455000073,545.5333455000073,546.5333730999992,546.5333730999992,547.505765199996,x,1,0.9572195999935502,None,398324,001,2024-10-17_18h14.06.959,motor_sequence_learning_exp,2024.1.5,None,2024-10-17 18h14.14.971627 +0530,
150,v,47,1,189,1,,,,,547.5169644999987,,547.5071529999987,547.5169644999987,548.5174133999972,548.5174133999972,548.5174133999972,548.5174133999972,548.5174133999972,549.5176490000013,549.5176490000013,550.4557148000022,v,1,0.9261782999965362,None,398324,001,2024-10-17_18h14.06.959,motor_sequence_learning_exp,2024.1.5,None,2024-10-17 18h14.14.971627 +0530,
50,c,47,2,190,2,,,,,550.4677215999982,,550.4568825000024,550.4677215999982,551.4677841999946,551.4677841999946,551.4677841999946,551.4677841999946,551.4677841999946,552.4678836999956,552.4678836999956,553.1918234000041,c,1,0.7225589000008767,None,398324,001,2024-10-17_18h14.06.959,motor_sequence_learning_exp,2024.1.5,None,2024-10-17 18h14.14.971627 +0530,
-150,z,47,3,191,3,,,,,553.2012854000059,,553.1930401999998,553.2012854000059,554.2012896000087,554.2012896000087,554.2012896000087,554.2012896000087,554.2012896000087,555.2016667999997,555.2016667999997,555.773921,z,1,0.556351999999606,None,398324,001,2024-10-17_18h14.06.959,motor_sequence_learning_exp,2024.1.5,None,2024-10-17 18h14.14.971627 +0530,
-50,x,48,0,192,0,,,,,555.7852184000076,,555.7751846000028,555.7852184000076,556.7851255999994,556.7851255999994,556.7851255999994,556.7851255999994,556.7851255999994,557.7853162999963,557.7853162999963,558.4573253999988,x,1,0.6585333999973955,None,398324,001,2024-10-17_18h14.06.959,motor_sequence_learning_exp,2024.1.5,None,2024-10-17 18h14.14.971627 +0530,
150,v,48,1,193,1,,,,,558.4694051999977,,558.4587169000006,558.4694051999977,559.4690820999967,559.4690820999967,559.4690820999967,559.4690820999967,559.4690820999967,560.4693120000011,560.4693120000011,561.3573351999948,v,1,0.8713291000021854,None,398324,001,2024-10-17_18h14.06.959,motor_sequence_learning_exp,2024.1.5,None,2024-10-17 18h14.14.971627 +0530,
50,c,48,2,194,2,,,,,561.3697601000022,,561.3584361999965,561.3697601000022,562.3694137999992,562.3694137999992,562.3694137999992,562.3694137999992,562.3694137999992,563.3698962000053,563.3698962000053,564.1953431000002,c,1,0.8235489999933634,None,398324,001,2024-10-17_18h14.06.959,motor_sequence_learning_exp,2024.1.5,None,2024-10-17 18h14.14.971627 +0530,
-150,z,48,3,195,3,,,,,564.2189999999973,,564.1974053000013,564.2189999999973,565.2031510000088,565.2031510000088,565.2031510000088,565.2031510000088,565.2200058000017,566.2033215999982,566.2033215999982,566.758038800006,z,1,0.5402080000058049,None,398324,001,2024-10-17_18h14.06.959,motor_sequence_learning_exp,2024.1.5,None,2024-10-17 18h14.14.971627 +0530,
-50,x,49,0,196,0,,,,,566.7708631999994,,566.7591167000064,566.7708631999994,567.770290600005,567.770290600005,567.770290600005,567.770290600005,567.770290600005,568.7708711000014,568.7708711000014,569.5259234999976,x,1,0.74598409999453,None,398324,001,2024-10-17_18h14.06.959,motor_sequence_learning_exp,2024.1.5,None,2024-10-17 18h14.14.971627 +0530,
150,v,49,1,197,1,,,,,569.5375719000003,,569.5270907000086,569.5375719000003,570.5375414000009,570.5375414000009,570.5375414000009,570.5375414000009,570.5375414000009,571.5379995999974,571.5379995999974,572.5106472000043,v,1,0.965391500008991,None,398324,001,2024-10-17_18h14.06.959,motor_sequence_learning_exp,2024.1.5,None,2024-10-17 18h14.14.971627 +0530,
50,c,49,2,198,2,,,,,572.5215702999994,,572.5118487,572.5215702999994,573.5214549000084,573.5214549000084,573.5214549000084,573.5214549000084,573.5214549000084,574.522314700007,574.522314700007,575.544081400003,c,1,1.0195184000040172,None,398324,001,2024-10-17_18h14.06.959,motor_sequence_learning_exp,2024.1.5,None,2024-10-17 18h14.14.971627 +0530,
-150,z,49,3,199,3,,,,,575.5557515999972,,575.5452630000073,575.5557515999972,576.5557770000014,576.5557770000014,576.5557770000014,576.5557770000014,576.5557770000014,577.5558869000088,577.5558869000088,578.3110803000018,z,1,0.7441345000115689,None,398324,001,2024-10-17_18h14.06.959,motor_sequence_learning_exp,2024.1.5,None,2024-10-17 18h14.14.971627 +0530,
-50,x,,,,,0,0,0,0,578.3383160999947,,578.3213476999954,578.3383160999947,579.3386283,579.3386283,579.3386283,579.3386283,579.3578779999953,580.3228012000036,580.3228012000036,581.0620418000035,x,1,0.7350150999991456,None,398324,001,2024-10-17_18h14.06.959,motor_sequence_learning_exp,2024.1.5,None,2024-10-17 18h14.14.971627 +0530,
-50,x,,,,,0,1,1,0,581.0730541000084,,581.0638583999971,581.0730541000084,582.0734623000026,582.0734623000026,582.0734623000026,582.0734623000026,582.0734623000026,583.0735677000048,583.0735677000048,583.8452594999981,x,1,0.762728400004562,None,398324,001,2024-10-17_18h14.06.959,motor_sequence_learning_exp,2024.1.5,None,2024-10-17 18h14.14.971627 +0530,
150,v,,,,,0,2,2,1,583.8570335999975,,583.8464600000007,583.8570335999975,584.8574407999986,584.8574407999986,584.8574407999986,584.8574407999986,584.8574407999986,585.8577666000056,585.8577666000056,586.8791725000046,v,1,1.0171047000039835,None,398324,001,2024-10-17_18h14.06.959,motor_sequence_learning_exp,2024.1.5,None,2024-10-17 18h14.14.971627 +0530,
-50,x,,,,,0,3,3,0,586.8908178999991,,586.8802683999966,586.8908178999991,587.8911208000063,587.8911208000063,587.8911208000063,587.8911208000063,587.8911208000063,588.8917046999995,588.8917046999995,589.8135406000074,x,1,0.9197497999994084,None,398324,001,2024-10-17_18h14.06.959,motor_sequence_learning_exp,2024.1.5,None,2024-10-17 18h14.14.971627 +0530,
-50,x,,,,,1,0,4,0,589.8247237000032,,589.8147778999992,589.8247237000032,590.8248012999975,590.8248012999975,590.8248012999975,590.8248012999975,590.8248012999975,591.8252278,591.8252278,592.5466605999973,x,1,0.7174721000046702,None,398324,001,2024-10-17_18h14.06.959,motor_sequence_learning_exp,2024.1.5,None,2024-10-17 18h14.14.971627 +0530,
-150,z,,,,,1,1,5,3,592.5585731000028,,592.5477672999987,592.5585731000028,593.5584638,593.5584638,593.5584638,593.5584638,593.5584638,594.5586762000021,594.5586762000021,595.1976001000003,z,1,0.6308614000008674,None,398324,001,2024-10-17_18h14.06.959,motor_sequence_learning_exp,2024.1.5,None,2024-10-17 18h14.14.971627 +0530,
50,c,,,,,1,2,6,2,595.2093590000004,,595.1991495999973,595.2093590000004,596.2091065999994,596.2091065999994,596.2091065999994,596.2091065999994,596.2091065999994,597.2094743000052,597.2094743000052,598.0138963000063,c,1,0.7906971999909729,None,398324,001,2024-10-17_18h14.06.959,motor_sequence_learning_exp,2024.1.5,None,2024-10-17 18h14.14.971627 +0530,
-50,x,,,,,1,3,7,0,598.0264969999989,,598.0149989000056,598.0264969999989,599.0262051000027,599.0262051000027,599.0262051000027,599.0262051000027,599.0262051000027,600.0267785000033,600.0267785000033,600.8817354000057,x,1,0.8499137000035262,None,398324,001,2024-10-17_18h14.06.959,motor_sequence_learning_exp,2024.1.5,None,2024-10-17 18h14.14.971627 +0530,
150,v,,,,,2,0,8,1,600.8934507999948,,600.8828495000052,600.8934507999948,601.8931894999987,601.8931894999987,601.8931894999987,601.8931894999987,601.8931894999987,602.8935195000086,602.8935195000086,603.7823972000042,v,1,0.8816072000045097,None,398324,001,2024-10-17_18h14.06.959,motor_sequence_learning_exp,2024.1.5,None,2024-10-17 18h14.14.971627 +0530,
-50,x,,,,,2,1,9,0,603.7940557999973,,603.7835261,603.7940557999973,604.7942489999987,604.7942489999987,604.7942489999987,604.7942489999987,604.7942489999987,605.794027099997,605.794027099997,606.7162954999949,x,1,0.9139224000100512,None,398324,001,2024-10-17_18h14.06.959,motor_sequence_learning_exp,2024.1.5,None,2024-10-17 18h14.14.971627 +0530,
-150,z,,,,,2,2,10,3,606.7277093000012,,606.717502200001,606.7277093000012,607.7279693000019,607.7279693000019,607.7279693000019,607.7279693000019,607.7279693000019,608.7277601999958,608.7277601999958,609.2502638000005,z,1,0.5149818999925628,None,398324,001,2024-10-17_18h14.06.959,motor_sequence_learning_exp,2024.1.5,None,2024-10-17 18h14.14.971627 +0530,
-150,z,,,,,2,3,11,3,609.2611932,,609.251406299998,609.2611932,610.2615558999969,610.2615558999969,610.2615558999969,610.2615558999969,610.2615558999969,611.2617921000056,611.2617921000056,611.7510241999989,z,1,0.48353599999973085,None,398324,001,2024-10-17_18h14.06.959,motor_sequence_learning_exp,2024.1.5,None,2024-10-17 18h14.14.971627 +0530,
-150,z,,,,,3,0,12,3,611.7619717000052,,611.7526231000083,611.7619717000052,612.7618316000007,612.7618316000007,612.7618316000007,612.7618316000007,612.7618316000007,613.7621791999991,613.7621791999991,614.2693424000026,z,1,0.5011283000058029,None,398324,001,2024-10-17_18h14.06.959,motor_sequence_learning_exp,2024.1.5,None,2024-10-17 18h14.14.971627 +0530,
50,c,,,,,3,1,13,2,614.2791433999955,,614.2705848000041,614.2791433999955,615.2793515999947,615.2793515999947,615.2793515999947,615.2793515999947,615.2793515999947,616.279886400007,616.279886400007,617.1843915000063,c,1,0.8899519999977201,None,398324,001,2024-10-17_18h14.06.959,motor_sequence_learning_exp,2024.1.5,None,2024-10-17 18h14.14.971627 +0530,
-150,z,,,,,3,2,14,3,617.1965782000043,,617.1855691999954,617.1965782000043,618.1960360000085,618.1960360000085,618.1960360000085,618.1960360000085,618.1960360000085,619.1968403000064,619.1968403000064,619.6525127000059,z,1,0.4515608999936376,None,398324,001,2024-10-17_18h14.06.959,motor_sequence_learning_exp,2024.1.5,None,2024-10-17 18h14.14.971627 +0530,
50,c,,,,,3,3,15,2,619.6632113999949,,619.6536523999966,619.6632113999949,620.6633030999947,620.6633030999947,620.6633030999947,620.6633030999947,620.6633030999947,621.663976900003,621.663976900003,622.6198752000055,c,1,0.9494686999969417,None,398324,001,2024-10-17_18h14.06.959,motor_sequence_learning_exp,2024.1.5,None,2024-10-17 18h14.14.971627 +0530,
-150,z,,,,,4,0,16,3,622.6303690000059,,622.6210643000086,622.6303690000059,623.6308201000065,623.6308201000065,623.6308201000065,623.6308201000065,623.6308201000065,624.6308575000003,624.6308575000003,625.152782300007,z,1,0.5123888999951305,None,398324,001,2024-10-17_18h14.06.959,motor_sequence_learning_exp,2024.1.5,None,2024-10-17 18h14.14.971627 +0530,
150,v,,,,,4,1,17,1,625.1644010000018,,625.1539722000016,625.1644010000018,626.1646995000046,626.1646995000046,626.1646995000046,626.1646995000046,626.1646995000046,627.1647664000047,627.1647664000047,628.1198729000025,v,1,0.9405388000013772,None,398324,001,2024-10-17_18h14.06.959,motor_sequence_learning_exp,2024.1.5,None,2024-10-17 18h14.14.971627 +0530,
150,v,,,,,4,2,18,1,628.1319713999983,,628.1210311000032,628.1319713999983,629.1315850999963,629.1315850999963,629.1315850999963,629.1315850999963,629.1315850999963,630.1320267999981,630.1320267999981,631.1544855999964,v,1,1.015176100001554,None,398324,001,2024-10-17_18h14.06.959,motor_sequence_learning_exp,2024.1.5,None,2024-10-17 18h14.14.971627 +0530,
50,c,,,,,4,3,19,2,631.1658035,,631.155660400007,631.1658035,632.1657621000049,632.1657621000049,632.1657621000049,632.1657621000049,632.1657621000049,633.1658644999989,633.1658644999989,633.9603306000063,c,1,0.7828171000001021,None,398324,001,2024-10-17_18h14.06.959,motor_sequence_learning_exp,2024.1.5,None,2024-10-17 18h14.14.971627 +0530,
-150,z,,,,,5,0,20,3,633.9824263000046,,633.9613931000058,633.9824263000046,634.9662171999953,634.9662171999953,634.9662171999953,634.9662171999953,634.9847854999971,635.9662660000031,635.9662660000031,636.5392961000034,z,1,0.5650140999932773,None,398324,001,2024-10-17_18h14.06.959,motor_sequence_learning_exp,2024.1.5,None,2024-10-17 18h14.14.971627 +0530,
50,c,,,,,5,1,21,2,636.5499894999957,,636.5405151000014,636.5499894999957,637.5503576000046,637.5503576000046,637.5503576000046,637.5503576000046,637.5503576000046,638.5503084999946,638.5503084999946,639.6561246000056,c,1,1.1042181999946479,None,398324,001,2024-10-17_18h14.06.959,motor_sequence_learning_exp,2024.1.5,None,2024-10-17 18h14.14.971627 +0530,
50,c,,,,,5,2,22,2,639.6683256999968,,639.6581073999987,639.6683256999968,640.6674698999996,640.6674698999996,640.6674698999996,640.6674698999996,640.6674698999996,641.6672437000088,641.6672437000088,642.7555523000046,c,1,1.0782193999912124,None,398324,001,2024-10-17_18h14.06.959,motor_sequence_learning_exp,2024.1.5,None,2024-10-17 18h14.14.971627 +0530,
-50,x,,,,,5,3,23,0,642.7675915,,642.7566840000072,642.7675915,643.7683604000049,643.7683604000049,643.7683604000049,643.7683604000049,643.7683604000049,644.7679598999966,644.7679598999966,645.5394274999999,x,1,0.7626219000085257,None,398324,001,2024-10-17_18h14.06.959,motor_sequence_learning_exp,2024.1.5,None,2024-10-17 18h14.14.971627 +0530,
-150,z,,,,,6,0,24,3,645.5514148000075,,645.540513400003,645.5514148000075,646.5519036000042,646.5519036000042,646.5519036000042,646.5519036000042,646.5519036000042,647.5517861999979,647.5517861999979,648.3739762000041,z,1,0.8207911999925273,None,398324,001,2024-10-17_18h14.06.959,motor_sequence_learning_exp,2024.1.5,None,2024-10-17 18h14.14.971627 +0530,
-50,x,,,,,6,1,25,0,648.3853270999971,,648.3750628999987,648.3853270999971,649.3853141,649.3853141,649.3853141,649.3853141,649.3853141,650.3860400999984,650.3860400999984,651.1574220000039,x,1,0.7681850000080885,None,398324,001,2024-10-17_18h14.06.959,motor_sequence_learning_exp,2024.1.5,None,2024-10-17 18h14.14.971627 +0530,
-50,x,,,,,6,2,26,0,651.1691418999981,,651.1585099000076,651.1691418999981,652.1694398999971,652.1694398999971,652.1694398999971,652.1694398999971,652.1694398999971,653.169263600008,653.169263600008,654.0413196000009,x,1,0.8643526999949245,None,398324,001,2024-10-17_18h14.06.959,motor_sequence_learning_exp,2024.1.5,None,2024-10-17 18h14.14.971627 +0530,
50,c,,,,,6,3,27,2,654.0529487000022,,654.0424462000083,654.0529487000022,655.0532826999988,655.0532826999988,655.0532826999988,655.0532826999988,655.0532826999988,656.0531323000032,656.0531323000032,656.8604175000073,c,1,0.792923700006213,None,398324,001,2024-10-17_18h14.06.959,motor_sequence_learning_exp,2024.1.5,None,2024-10-17 18h14.14.971627 +0530,
-150,z,,,,,7,0,28,3,656.8703593999962,,656.8616467999964,656.8703593999962,657.8705832999985,657.8705832999985,657.8705832999985,657.8705832999985,657.8705832999985,658.8702732999955,658.8702732999955,659.4921557000052,z,1,0.6055639999976847,None,398324,001,2024-10-17_18h14.06.959,motor_sequence_learning_exp,2024.1.5,None,2024-10-17 18h14.14.971627 +0530,
50,c,,,,,7,1,29,2,659.5038936000055,,659.4932829000027,659.5038936000055,660.5046708000009,660.5046708000009,660.5046708000009,660.5046708000009,660.5046708000009,661.5045422999974,661.5045422999974,662.3936185000057,c,1,0.8738456999999471,None,398324,001,2024-10-17_18h14.06.959,motor_sequence_learning_exp,2024.1.5,None,2024-10-17 18h14.14.971627 +0530,
50,c,,,,,7,2,30,2,662.4044200000062,,662.3947027999966,662.4044200000062,663.4046447000001,663.4046447000001,663.4046447000001,663.4046447000001,663.4046447000001,664.4047452999948,664.4047452999948,665.226928899996,c,1,0.8204766999988351,None,398324,001,2024-10-17_18h14.06.959,motor_sequence_learning_exp,2024.1.5,None,2024-10-17 18h14.14.971627 +0530,
150,v,,,,,7,3,31,1,665.2382954000059,,665.2280820000015,665.2382954000059,666.2390641999955,666.2390641999955,666.2390641999955,666.2390641999955,666.2390641999955,667.2388932000031,667.2388932000031,668.0611862000078,v,1,0.8148799999908078,None,398324,001,2024-10-17_18h14.06.959,motor_sequence_learning_exp,2024.1.5,None,2024-10-17 18h14.14.971627 +0530,
-150,z,,,,,8,0,32,3,668.0721112000028,,668.0623945999978,668.0721112000028,669.0724390999967,669.0724390999967,669.0724390999967,669.0724390999967,669.0724390999967,670.0726228999993,670.0726228999993,670.8785256999981,z,1,0.7902581000089413,None,398324,001,2024-10-17_18h14.06.959,motor_sequence_learning_exp,2024.1.5,None,2024-10-17 18h14.14.971627 +0530,
-50,x,,,,,8,1,33,0,670.8892899000057,,670.8796900000016,670.8892899000057,671.8895658999973,671.8895658999973,671.8895658999973,671.8895658999973,671.8895658999973,672.8898233000073,672.8898233000073,673.7942197999946,x,1,0.889031899991096,None,398324,001,2024-10-17_18h14.06.959,motor_sequence_learning_exp,2024.1.5,None,2024-10-17 18h14.14.971627 +0530,
150,v,,,,,8,2,34,1,673.8065587000019,,673.7952985000011,673.8065587000019,674.8067852999957,674.8067852999957,674.8067852999957,674.8067852999957,674.8067852999957,675.8068181999988,675.8068181999988,676.8951783999946,v,1,1.0744888999906834,None,398324,001,2024-10-17_18h14.06.959,motor_sequence_learning_exp,2024.1.5,None,2024-10-17 18h14.14.971627 +0530,
50,c,,,,,8,3,35,2,676.9074053000077,,676.896418999997,676.9074053000077,677.9072315999947,677.9072315999947,677.9072315999947,677.9072315999947,677.9072315999947,678.9074025000009,678.9074025000009,679.6303761000017,c,1,0.7159680999902776,None,398324,001,2024-10-17_18h14.06.959,motor_sequence_learning_exp,2024.1.5,None,2024-10-17 18h14.14.971627 +0530,
150,v,,,,,9,0,36,1,679.641320900002,,679.6316221000016,679.641320900002,680.6411166000034,680.6411166000034,680.6411166000034,680.6411166000034,680.6411166000034,681.6412914999964,681.6412914999964,682.5793300000078,v,1,0.921040199988056,None,398324,001,2024-10-17_18h14.06.959,motor_sequence_learning_exp,2024.1.5,None,2024-10-17 18h14.14.971627 +0530,
-150,z,,,,,9,1,37,3,682.5915236000001,,682.5804444999958,682.5915236000001,683.5920139000082,683.5920139000082,683.5920139000082,683.5920139000082,683.5920139000082,684.5919088999945,684.5919088999945,685.3637965999951,z,1,0.7695563999877777,None,398324,001,2024-10-17_18h14.06.959,motor_sequence_learning_exp,2024.1.5,None,2024-10-17 18h14.14.971627 +0530,
150,v,,,,,9,2,38,1,685.3754547999997,,685.3649149999983,685.3754547999997,686.3759204999951,686.3759204999951,686.3759204999951,686.3759204999951,686.3759204999951,687.3755531000061,687.3755531000061,688.7146476000053,v,1,1.3108544999995502,None,398324,001,2024-10-17_18h14.06.959,motor_sequence_learning_exp,2024.1.5,None,2024-10-17 18h14.14.971627 +0530,
-50,x,,,,,9,3,39,0,688.7264575000008,,688.7170222999994,688.7264575000008,689.7261024000036,689.7261024000036,689.7261024000036,689.7261024000036,689.7261024000036,690.7268941000075,690.7268941000075,691.5809085000074,x,1,0.8400137999997241,None,398324,001,2024-10-17_18h14.06.959,motor_sequence_learning_exp,2024.1.5,None,2024-10-17 18h14.14.971627 +0530,
50,c,,,,,10,0,40,2,691.5930765999947,,691.5820266000082,691.5930765999947,692.5937902000005,692.5937902000005,692.5937902000005,692.5937902000005,692.5937902000005,693.5933412000013,693.5933412000013,694.5835845999973,c,1,0.9885102999978699,None,398324,001,2024-10-17_18h14.06.959,motor_sequence_learning_exp,2024.1.5,None,2024-10-17 18h14.14.971627 +0530,
-50,x,,,,,10,1,41,0,694.5943086000043,,694.5850770999969,694.5943086000043,695.5937292000017,695.5937292000017,695.5937292000017,695.5937292000017,695.5937292000017,696.593587299998,696.593587299998,697.399359300005,x,1,0.7980356000043685,None,398324,001,2024-10-17_18h14.06.959,motor_sequence_learning_exp,2024.1.5,None,2024-10-17 18h14.14.971627 +0530,
150,v,,,,,10,2,42,1,697.4109596000053,,697.4004537000001,697.4109596000053,698.4111335000052,698.4111335000052,698.4111335000052,698.4111335000052,698.4111335000052,699.4110245000047,699.4110245000047,700.2500389000052,v,1,0.8175196999945911,None,398324,001,2024-10-17_18h14.06.959,motor_sequence_learning_exp,2024.1.5,None,2024-10-17 18h14.14.971627 +0530,
150,v,,,,,10,3,43,1,700.2623496000015,,700.2519517000037,700.2623496000015,701.2620989999996,701.2620989999996,701.2620989999996,701.2620989999996,701.2620989999996,702.261459100002,702.261459100002,703.7838885999954,v,1,1.5148424999933923,None,398324,001,2024-10-17_18h14.06.959,motor_sequence_learning_exp,2024.1.5,None,2024-10-17 18h14.14.971627 +0530,
150,v,,,,,11,0,44,1,703.7951756999973,,703.7850455000007,703.7951756999973,704.7957769000059,704.7957769000059,704.7957769000059,704.7957769000059,704.7957769000059,705.7953207999963,705.7953207999963,706.7517159999989,v,1,0.9545624000020325,None,398324,001,2024-10-17_18h14.06.959,motor_sequence_learning_exp,2024.1.5,None,2024-10-17 18h14.14.971627 +0530,
-50,x,,,,,11,1,45,0,706.7625171999971,,706.7527971999953,706.7625171999971,707.7636454000021,707.7636454000021,707.7636454000021,707.7636454000021,707.7636454000021,708.7628728999989,708.7628728999989,709.6371432000014,x,1,0.8671422000043094,None,398324,001,2024-10-17_18h14.06.959,motor_sequence_learning_exp,2024.1.5,None,2024-10-17 18h14.14.971627 +0530,
-50,x,,,,,11,2,46,0,709.6460301000043,,709.6385221999954,709.6460301000043,710.6464785999997,710.6464785999997,710.6464785999997,710.6464785999997,710.6464785999997,711.6470992999966,711.6470992999966,713.0521748000028,x,1,1.387501200006227,None,398324,001,2024-10-17_18h14.06.959,motor_sequence_learning_exp,2024.1.5,None,2024-10-17 18h14.14.971627 +0530,
150,v,,,,,11,3,47,1,713.0638898000034,,713.0532814000035,713.0638898000034,714.0638872999989,714.0638872999989,714.0638872999989,714.0638872999989,714.0638872999989,715.064315399999,715.064315399999,716.3861286000028,v,1,1.3159253999911016,None,398324,001,2024-10-17_18h14.06.959,motor_sequence_learning_exp,2024.1.5,None,2024-10-17 18h14.14.971627 +0530,
150,v,,,,,12,0,48,1,716.3978547000006,,716.3875093999959,716.3978547000006,717.398443099999,717.398443099999,717.398443099999,717.398443099999,717.398443099999,718.4143053000007,718.4143053000007,720.0524543000065,v,1,1.6217901999916648,None,398324,001,2024-10-17_18h14.06.959,motor_sequence_learning_exp,2024.1.5,None,2024-10-17 18h14.14.971627 +0530,
150,v,,,,,12,1,49,1,720.064930499997,,720.0536005000031,720.064930499997,721.065074099999,721.065074099999,721.065074099999,721.065074099999,721.065074099999,722.0649581000034,722.0649581000034,722.9204852999974,v,1,0.8455936999962432,None,398324,001,2024-10-17_18h14.06.959,motor_sequence_learning_exp,2024.1.5,None,2024-10-17 18h14.14.971627 +0530,
-150,z,,,,,12,2,50,3,722.932355500001,,722.9216582000081,722.932355500001,723.9323792000068,723.9323792000068,723.9323792000068,723.9323792000068,723.9323792000068,724.9322837000072,724.9322837000072,725.7382614000089,z,1,0.8009693999920273,None,398324,001,2024-10-17_18h14.06.959,motor_sequence_learning_exp,2024.1.5,None,2024-10-17 18h14.14.971627 +0530,
150,v,,,,,12,3,51,1,725.749035300003,,725.7397079000075,725.749035300003,726.7495741000021,726.7495741000021,726.7495741000021,726.7495741000021,726.7495741000021,727.7496075999952,727.7496075999952,729.5774573999952,v,1,1.8260868999932427,None,398324,001,2024-10-17_18h14.06.959,motor_sequence_learning_exp,2024.1.5,None,2024-10-17 18h14.14.971627 +0530,
-150,z,,,,,13,0,52,3,729.5989648999966,,729.5785443000059,729.5989648999966,730.5837720999989,730.5837720999989,730.5837720999989,730.5837720999989,730.6013535999955,731.5839645999949,731.5839645999949,733.1886337000033,z,1,1.588891399995191,None,398324,001,2024-10-17_18h14.06.959,motor_sequence_learning_exp,2024.1.5,None,2024-10-17 18h14.14.971627 +0530,
-150,z,,,,,13,1,53,3,733.2007642999961,,733.1897831999959,733.2007642999961,734.2010233000037,734.2010233000037,734.2010233000037,734.2010233000037,734.2010233000037,735.2007031999965,735.2007031999965,735.8059429999994,z,1,0.592358099995181,None,398324,001,2024-10-17_18h14.06.959,motor_sequence_learning_exp,2024.1.5,None,2024-10-17 18h14.14.971627 +0530,
-150,z,,,,,13,2,54,3,735.8179213999974,,735.8070503000054,735.8179213999974,736.817939600005,736.817939600005,736.817939600005,736.817939600005,736.817939600005,737.8179233999981,737.8179233999981,738.4397804000037,z,1,0.6181351999985054,None,398324,001,2024-10-17_18h14.06.959,motor_sequence_learning_exp,2024.1.5,None,2024-10-17 18h14.14.971627 +0530,
50,c,,,,,13,3,55,2,738.4518037000089,,738.4408236000017,738.4518037000089,739.4518281000055,739.4518281000055,739.4518281000055,739.4518281000055,739.4518281000055,740.4523311000085,740.4523311000085,741.4241023000068,c,1,0.9691327999898931,None,398324,001,2024-10-17_18h14.06.959,motor_sequence_learning_exp,2024.1.5,None,2024-10-17 18h14.14.971627 +0530,
150,v,,,,,14,0,56,1,741.4355644000025,,741.4252797000081,741.4355644000025,742.4355507,742.4355507,742.4355507,742.4355507,742.4355507,743.436326199997,743.436326199997,744.2741515999951,v,1,0.8273823000054108,None,398324,001,2024-10-17_18h14.06.959,motor_sequence_learning_exp,2024.1.5,None,2024-10-17 18h14.14.971627 +0530,
-50,x,,,,,14,1,57,0,744.2861814000062,,744.275370000003,744.2861814000062,745.2858546000061,745.2858546000061,745.2858546000061,745.2858546000061,745.2858546000061,746.2867338000069,746.2867338000069,747.0411008000083,x,1,0.7390517000021646,None,398324,001,2024-10-17_18h14.06.959,motor_sequence_learning_exp,2024.1.5,None,2024-10-17 18h14.14.971627 +0530,
-150,z,,,,,14,2,58,3,747.0530512999976,,747.0422219000029,747.0530512999976,748.0539638000046,748.0539638000046,748.0539638000046,748.0539638000046,748.0539638000046,749.0689027000044,749.0689027000044,749.542056300008,z,1,0.4603538000083063,None,398324,001,2024-10-17_18h14.06.959,motor_sequence_learning_exp,2024.1.5,None,2024-10-17 18h14.14.971627 +0530,
50,c,,,,,14,3,59,2,749.5539903000026,,749.5435276000062,749.5539903000026,750.5539070999948,750.5539070999948,750.5539070999948,750.5539070999948,750.5539070999948,751.5538965000014,751.5538965000014,752.4425980000087,c,1,0.8860332000040216,None,398324,001,2024-10-17_18h14.06.959,motor_sequence_learning_exp,2024.1.5,None,2024-10-17 18h14.14.971627 +0530,
-50,x,,,,,15,0,60,0,752.454112499996,,752.4436701000086,752.454112499996,753.4540665999957,753.4540665999957,753.4540665999957,753.4540665999957,753.4540665999957,754.4542311999976,754.4542311999976,755.059737500007,x,1,0.5912928999896394,None,398324,001,2024-10-17_18h14.06.959,motor_sequence_learning_exp,2024.1.5,None,2024-10-17 18h14.14.971627 +0530,
50,c,,,,,15,1,61,2,755.0724645000009,,755.0614006999967,755.0724645000009,756.0716607000068,756.0716607000068,756.0716607000068,756.0716607000068,756.0716607000068,757.071400300003,757.071400300003,757.8604563999979,c,1,0.78316970000742,None,398324,001,2024-10-17_18h14.06.959,motor_sequence_learning_exp,2024.1.5,None,2024-10-17 18h14.14.971627 +0530,
150,v,,,,,15,2,62,1,757.8721437000058,,757.8618549999956,757.8721437000058,758.8719898999989,758.8719898999989,758.8719898999989,758.8719898999989,758.8719898999989,759.8720176000061,759.8720176000061,761.0445414999995,v,1,1.1673163999948883,None,398324,001,2024-10-17_18h14.06.959,motor_sequence_learning_exp,2024.1.5,None,2024-10-17 18h14.14.971627 +0530,
-50,x,,,,,15,3,63,0,761.0558371000079,,761.045901000005,761.0558371000079,762.0559021000081,762.0559021000081,762.0559021000081,762.0559021000081,762.0559021000081,763.0730006000085,763.0730006000085,763.7944170999981,x,1,0.7139392999961274,None,398324,001,2024-10-17_18h14.06.959,motor_sequence_learning_exp,2024.1.5,None,2024-10-17 18h14.14.971627 +0530,
-50,x,,,,,16,0,64,0,763.806440100001,,763.7955405999965,763.806440100001,764.8066035999946,764.8066035999946,764.8066035999946,764.8066035999946,764.8066035999946,765.807318799998,765.807318799998,766.5291910999949,x,1,0.7178246999974363,None,398324,001,2024-10-17_18h14.06.959,motor_sequence_learning_exp,2024.1.5,None,2024-10-17 18h14.14.971627 +0530,
50,c,,,,,16,1,65,2,766.5400780000055,,766.5303765999997,766.5400780000055,767.5403165000025,767.5403165000025,767.5403165000025,767.5403165000025,767.5403165000025,768.5401797999948,768.5401797999948,769.4293223999994,c,1,0.8750651000009384,None,398324,001,2024-10-17_18h14.06.959,motor_sequence_learning_exp,2024.1.5,None,2024-10-17 18h14.14.971627 +0530,
-150,z,,,,,16,2,66,3,769.4416857000033,,769.4304445000016,769.4416857000033,770.4408317000052,770.4408317000052,770.4408317000052,770.4408317000052,770.4408317000052,771.4409821000008,771.4409821000008,772.0455232999957,z,1,0.5894522999878973,None,398324,001,2024-10-17_18h14.06.959,motor_sequence_learning_exp,2024.1.5,None,2024-10-17 18h14.14.971627 +0530,
50,c,,,,,16,3,67,2,772.0577027999971,,772.0466496000008,772.0577027999971,773.0580984999979,773.0580984999979,773.0580984999979,773.0580984999979,773.0580984999979,774.0580789000087,774.0580789000087,775.0971014999959,c,1,1.0372519999946235,None,398324,001,2024-10-17_18h14.06.959,motor_sequence_learning_exp,2024.1.5,None,2024-10-17 18h14.14.971627 +0530,
150,v,,,,,17,0,68,1,775.1085119000054,,775.098241300002,775.1085119000054,776.108384799998,776.108384799998,776.108384799998,776.108384799998,776.108384799998,777.1087111000088,777.1087111000088,777.8632728999946,v,1,0.7431712999969022,None,398324,001,2024-10-17_18h14.06.959,motor_sequence_learning_exp,2024.1.5,None,2024-10-17 18h14.14.971627 +0530,
150,v,,,,,17,1,69,1,777.8757915000024,,777.8643832999951,777.8757915000024,778.875489500002,778.875489500002,778.875489500002,778.875489500002,778.875489500002,779.8756783999997,779.8756783999997,780.6809275999985,v,1,0.7920287000015378,None,398324,001,2024-10-17_18h14.06.959,motor_sequence_learning_exp,2024.1.5,None,2024-10-17 18h14.14.971627 +0530,
50,c,,,,,17,2,70,2,780.6925828999956,,780.6820577000035,780.6925828999956,781.6929222000035,781.6929222000035,781.6929222000035,781.6929222000035,781.6929222000035,782.6927354000072,782.6927354000072,783.4810960000032,c,1,0.7799987000034889,None,398324,001,2024-10-17_18h14.06.959,motor_sequence_learning_exp,2024.1.5,None,2024-10-17 18h14.14.971627 +0530,
50,c,,,,,17,3,71,2,783.4932655000011,,783.4821534000075,783.4932655000011,784.4935193999991,784.4935193999991,784.4935193999991,784.4935193999991,784.4935193999991,785.4935346999991,785.4935346999991,786.2152250000072,c,1,0.7105410999938613,None,398324,001,2024-10-17_18h14.06.959,motor_sequence_learning_exp,2024.1.5,None,2024-10-17 18h14.14.971627 +0530,
-50,x,,,,,18,0,72,0,786.2269938999962,,786.2166301999969,786.2269938999962,787.2269318000035,787.2269318000035,787.2269318000035,787.2269318000035,787.2269318000035,788.2275648000068,788.2275648000068,789.0193115000002,x,1,0.7788801999995485,None,398324,001,2024-10-17_18h14.06.959,motor_sequence_learning_exp,2024.1.5,None,2024-10-17 18h14.14.971627 +0530,
-50,x,,,,,18,1,73,0,789.042372099997,,789.0214715000038,789.042372099997,790.0279816999973,790.0279816999973,790.0279816999973,790.0279816999973,790.044098600003,791.0289207000023,791.0289207000023,791.7658975999948,x,1,0.7201888999989023,None,398324,001,2024-10-17_18h14.06.959,motor_sequence_learning_exp,2024.1.5,None,2024-10-17 18h14.14.971627 +0530,
150,v,,,,,18,2,74,1,791.7779563000076,,791.7670311999973,791.7779563000076,792.777774400005,792.777774400005,792.777774400005,792.777774400005,792.777774400005,793.7781256000017,793.7781256000017,794.5170407999976,v,1,0.7299524000118254,None,398324,001,2024-10-17_18h14.06.959,motor_sequence_learning_exp,2024.1.5,None,2024-10-17 18h14.14.971627 +0530,
-150,z,,,,,18,3,75,3,794.5297534999991,,794.5182151000045,794.5297534999991,795.5288194000022,795.5288194000022,795.5288194000022,795.5288194000022,795.5614052000019,796.5290089000046,796.5290089000046,797.2342370999977,z,1,0.686640100000659,None,398324,001,2024-10-17_18h14.06.959,motor_sequence_learning_exp,2024.1.5,None,2024-10-17 18h14.14.971627 +0530,
